# Wavelength (nm), Intensity (colors)
175.94	1261.55
176.16	1261.55
176.38	1261.55
176.61	1236.97
176.83	1298.41
177.05	2681.35
177.27	2892.48
177.49	3140.09
177.71	3339.31
177.93	3583.39
178.15	3895.24
178.37	3777.94
178.59	3770.12
178.81	3747.97
179.03	3775.52
179.25	3776.27
179.47	3810.53
179.69	3769.75
179.91	3763.61
180.13	3786.69
180.35	3807.36
180.58	3690.63
180.80	3732.33
181.02	3648.36
181.24	3695.28
181.46	3724.70
181.68	3587.30
181.90	3572.40
182.12	3603.12
182.34	3566.07
182.56	3599.03
182.78	3488.81
183.00	3545.41
183.22	3580.41
183.44	3575.19
183.66	3561.60
183.88	3478.57
184.10	3445.43
184.32	3504.82
184.54	3522.69
184.76	3539.45
184.98	3505.19
185.20	3554.53
185.42	3609.64
185.64	3530.51
185.86	3593.44
186.08	3615.22
186.30	3702.54
186.52	3782.41
186.74	3872.15
186.96	3820.02
187.18	3840.50
187.40	3884.07
187.62	3972.50
187.84	3844.41
188.06	3844.60
188.28	3810.34
188.50	3818.53
188.72	3873.64
188.94	3801.59
189.16	3716.50
189.38	3749.83
189.60	3664.37
189.82	3553.78
190.04	3446.92
190.26	3435.00
190.48	3510.78
190.70	3547.08
190.92	3531.26
191.14	3442.26
191.36	3554.16
191.58	3482.48
191.80	3543.36
192.02	3573.89
192.24	3610.38
192.46	3636.63
192.68	3664.93
192.90	3593.81
193.12	3563.28
193.34	3572.77
193.56	3563.84
193.78	3425.69
194.00	3542.61
194.22	3496.63
194.44	3553.78
194.66	3588.97
194.88	3601.82
195.10	3634.03
195.32	3634.03
195.54	3671.08
195.76	3624.35
195.98	3697.51
196.20	3698.26
196.42	3553.41
196.64	3513.94
196.86	3445.43
197.08	3397.02
197.30	3360.53
197.51	3371.33
197.73	3387.53
197.95	3427.18
198.17	3553.60
198.39	3439.47
198.61	3445.43
198.83	3519.34
199.05	3521.39
199.27	3514.31
199.49	3614.66
199.71	3704.03
199.93	3636.45
200.15	3593.63
200.37	3525.30
200.59	3394.23
200.81	3409.50
201.03	3414.71
201.25	3386.60
201.46	3435.19
201.68	3435.00
201.90	3354.39
202.12	3324.60
202.34	3371.33
202.56	3464.79
202.78	3472.80
203.00	3497.56
203.22	3467.58
203.44	3513.76
203.66	3505.56
203.88	3469.82
204.10	3468.14
204.31	3506.31
204.53	3432.40
204.75	3428.86
204.97	3417.69
205.19	3467.21
205.41	3612.62
205.63	3767.70
205.85	3796.00
206.07	3918.70
206.29	4016.07
206.51	4020.72
206.73	4056.84
206.94	4048.83
207.16	3987.77
207.38	3945.50
207.60	3912.55
207.82	3748.53
208.04	3656.37
208.26	3596.98
208.48	3512.27
208.70	3459.02
208.91	3490.86
209.13	3439.66
209.35	3435.19
209.57	3441.70
209.79	3400.19
210.01	3383.80
210.23	3485.27
210.45	3574.64
210.67	3594.74
210.88	3538.33
211.10	3556.20
211.32	3575.19
211.54	3528.09
211.76	3562.91
211.98	3704.59
212.20	3726.37
212.42	3748.16
212.63	3623.60
212.85	3488.62
213.07	3473.54
213.29	3446.73
213.51	3396.28
213.73	3381.57
213.95	3431.84
214.17	3416.20
214.38	3285.13
214.60	3259.25
214.82	3203.95
215.04	3215.12
215.26	3248.08
215.48	3310.63
215.70	3433.51
215.91	3444.31
216.13	3478.38
216.35	3440.03
216.57	3457.34
216.79	3490.11
217.01	3626.21
217.23	3622.30
217.44	3655.07
217.66	3637.56
217.88	3570.17
218.10	3509.47
218.32	3487.32
218.54	3440.22
218.75	3454.36
218.97	3512.82
219.19	3525.49
219.41	3484.90
219.63	3537.59
219.85	3483.97
220.06	3478.75
220.28	3493.65
220.50	3548.01
220.72	3538.70
220.94	3581.15
221.16	3627.51
221.37	3657.49
221.59	3592.32
221.81	3608.71
222.03	3642.03
222.25	3777.76
222.46	3840.50
222.68	3814.06
222.90	3871.78
223.12	3898.77
223.34	3843.66
223.56	3806.24
223.77	3820.21
223.99	3847.76
224.21	3874.01
224.43	3819.83
224.65	3666.98
224.86	3633.66
225.08	3676.48
225.30	3515.80
225.52	3429.23
225.74	3443.57
225.95	3531.82
226.17	3532.93
226.39	3531.07
226.61	3469.45
226.83	3677.78
227.04	3742.38
227.26	3731.03
227.48	3702.91
227.70	3717.99
227.92	3857.26
228.13	3850.55
228.35	3776.27
228.57	3625.46
228.79	3639.80
229.00	3596.98
229.22	3420.29
229.44	3362.76
229.66	3341.54
229.88	3394.23
230.09	3420.29
230.31	3368.91
230.53	3364.81
230.75	3341.17
230.96	3464.79
231.18	3534.79
231.40	3551.18
231.62	3507.61
231.84	3590.28
232.05	3607.59
232.27	3587.30
232.49	3631.61
232.71	3609.64
232.92	3656.93
233.14	3595.49
233.36	3529.39
233.58	3430.16
233.79	3452.13
234.01	3452.13
234.23	3470.56
234.45	3456.97
234.66	3447.10
234.88	3379.71
235.10	3375.42
235.32	3314.54
235.53	3346.94
235.75	3381.38
235.97	3354.76
236.19	3458.65
236.40	3482.11
236.62	3479.31
236.84	3477.08
237.06	3542.61
237.27	3673.87
237.49	3609.08
237.71	3607.40
237.92	3614.66
238.14	3547.08
238.36	3547.83
238.58	3402.23
238.79	3391.62
239.01	3296.30
239.23	3355.88
239.45	3226.30
239.66	3144.19
239.88	3207.49
240.10	3240.63
240.31	3217.55
240.53	3218.10
240.75	3307.84
240.97	3309.15
241.18	3393.48
241.40	3383.99
241.62	3308.59
241.83	3325.34
242.05	3268.00
242.27	3292.76
242.49	3214.01
242.70	3295.93
242.92	3278.24
243.14	3269.49
243.35	3254.22
243.57	3205.07
243.79	3250.13
244.00	3356.25
244.22	3599.21
244.44	3608.33
244.66	3570.73
244.87	3677.41
245.09	3577.24
245.31	3597.91
245.52	3588.97
245.74	3581.52
245.96	3524.37
246.17	3476.89
246.39	3482.48
246.61	3267.81
246.82	3273.40
247.04	3325.90
247.26	3252.17
247.47	3295.00
247.69	3365.37
247.91	3335.95
248.13	3388.09
248.34	3406.52
248.56	3454.74
248.78	3459.02
248.99	3435.37
249.21	3410.80
249.43	3365.37
249.64	3362.21
249.86	3361.09
250.08	3378.78
250.29	3368.54
250.51	3324.78
250.73	3376.73
250.94	3440.96
251.16	3394.60
251.37	3471.31
251.59	3498.12
251.81	3693.79
252.02	3723.58
252.24	3761.56
252.46	3753.00
252.67	3729.35
252.89	3741.08
253.11	3685.41
253.32	3618.02
253.54	3549.69
253.76	3507.61
253.97	3533.86
254.19	3301.70
254.41	3292.20
254.62	3278.05
254.84	3163.37
255.05	3169.51
255.27	3176.21
255.49	3164.67
255.70	3129.48
255.92	3151.45
256.14	3145.12
256.35	3132.65
256.57	3159.46
256.79	3184.78
257.00	3292.76
257.22	3295.00
257.43	3342.28
257.65	3327.02
257.87	3335.40
258.08	3327.76
258.30	3309.15
258.51	3275.63
258.73	3281.22
258.95	3310.82
259.16	3272.28
259.38	3143.82
259.60	3135.44
259.81	3157.97
260.03	3159.27
260.24	3189.25
260.46	3193.71
260.68	3289.41
260.89	3328.69
261.11	3286.80
261.32	3274.89
261.54	3335.02
261.76	3383.06
261.97	3410.99
262.19	3372.45
262.40	3376.54
262.62	3335.40
262.84	3401.12
263.05	3393.86
263.27	3398.88
263.48	3425.88
263.70	3403.72
263.91	3386.97
264.13	3313.61
264.35	3314.92
264.56	3297.97
264.78	3285.69
264.99	3306.54
265.21	3348.06
265.43	3340.80
265.64	3272.84
265.86	3238.21
266.07	3296.67
266.29	3359.97
266.50	3374.31
266.72	3402.42
266.94	3461.44
267.15	3493.09
267.37	3490.48
267.58	3421.04
267.80	3327.58
268.01	3398.70
268.23	3376.73
268.44	3315.85
268.66	3219.03
268.88	3262.79
269.09	3271.35
269.31	3280.66
269.52	3241.56
269.74	3322.55
269.95	3389.76
270.17	3450.27
270.38	3462.56
270.60	3474.66
270.82	3489.37
271.03	3569.05
271.25	3583.39
271.46	3815.74
271.68	3779.25
271.89	3886.86
272.11	3870.29
272.32	3885.74
272.54	3855.58
272.75	3841.43
272.97	3845.71
273.18	3864.89
273.40	3760.82
273.62	3740.71
273.83	3456.60
274.05	3492.72
274.26	3430.16
274.48	3315.85
274.69	3338.00
274.91	3342.47
275.12	3334.47
275.34	3320.50
275.55	3357.74
275.77	3434.44
275.98	3379.33
276.20	3385.48
276.41	3412.85
276.63	3471.87
276.84	3484.34
277.06	3327.58
277.27	3325.16
277.49	3327.20
277.70	3346.75
277.92	3313.80
278.13	3312.12
278.35	3338.00
278.56	3384.36
278.78	3303.19
278.99	3365.74
279.21	3448.22
279.42	3543.17
279.64	3501.65
279.85	3502.96
280.07	3556.58
280.28	3602.38
280.50	3603.12
280.71	3693.79
280.93	3650.78
281.14	3669.40
281.36	3520.46
281.57	3524.18
281.79	3430.72
282.00	3485.64
282.22	3438.73
282.43	3413.59
282.65	3430.35
282.86	3344.71
283.08	3246.40
283.29	3296.11
283.51	3314.54
283.72	3341.91
283.94	3267.81
284.15	3321.25
284.36	3308.03
284.58	3339.12
284.79	3341.54
285.01	3275.07
285.22	3393.86
285.44	3399.81
285.65	3376.73
285.87	3342.47
286.08	3308.21
286.30	3327.02
286.51	3292.20
286.73	3315.10
286.94	3400.00
287.15	3435.00
287.37	3431.46
287.58	3305.24
287.80	3257.57
288.01	3226.67
288.23	3229.27
288.44	3212.52
288.66	3198.55
288.87	3216.80
289.08	3233.74
289.30	3155.18
289.51	3092.62
289.73	3039.00
289.94	3109.00
290.16	3112.17
290.37	3096.34
290.58	3274.14
290.80	3278.24
291.01	3302.44
291.23	3333.91
291.44	3292.02
291.66	3281.59
291.87	3301.14
292.08	3421.22
292.30	3380.45
292.51	3497.56
292.73	3559.74
292.94	3429.04
293.16	3491.41
293.37	3477.82
293.58	3543.92
293.80	3575.38
294.01	3680.20
294.23	3800.29
294.44	3734.75
294.65	3808.29
294.87	3736.05
295.08	3684.85
295.30	3633.84
295.51	3645.01
295.72	3674.99
295.94	3685.79
296.15	3674.61
296.37	3570.54
296.58	3510.78
296.79	3500.16
297.01	3421.22
297.22	3432.95
297.44	3470.19
297.65	3462.74
297.86	3486.95
298.08	3467.58
298.29	3362.39
298.51	3323.85
298.72	3295.37
298.93	3233.56
299.15	3348.43
299.36	3342.47
299.57	3372.07
299.79	3409.50
300.00	3404.28
300.22	3324.60
300.43	3281.03
300.64	3289.22
300.86	3405.40
301.07	3468.89
301.28	3480.62
301.50	3346.57
301.71	3420.67
301.93	3399.81
302.14	3326.46
302.35	3316.96
302.57	3321.99
302.78	3372.07
302.99	3376.36
303.21	3269.30
303.42	3259.99
303.63	3268.00
303.85	3341.91
304.06	3292.39
304.28	3344.71
304.49	3393.67
304.70	3461.63
304.92	3450.64
305.13	3518.60
305.34	3463.86
305.56	3439.47
305.77	3446.92
305.98	3446.55
306.20	3383.80
306.41	3378.40
306.62	3306.72
306.84	3382.69
307.05	3309.52
307.26	3397.02
307.48	3332.23
307.69	3427.74
307.90	3415.45
308.12	3347.31
308.33	3306.54
308.54	3305.42
308.76	3349.92
308.97	3312.12
309.18	3187.76
309.40	3165.60
309.61	3080.70
309.82	3029.69
310.04	3008.09
310.25	3072.33
310.46	3097.83
310.67	3048.31
310.89	3105.84
311.10	3123.34
311.31	3190.74
311.53	3248.26
311.74	3270.79
311.95	3304.49
312.17	3321.43
312.38	3281.96
312.59	3264.65
312.81	3279.73
313.02	3406.33
313.23	3378.40
313.44	3300.21
313.66	3247.89
313.87	3213.08
314.08	3218.29
314.30	3230.95
314.51	3208.79
314.72	3228.16
314.93	3315.85
315.15	3264.65
315.36	3247.52
315.57	3206.37
315.79	3210.47
316.00	3181.98
316.21	3144.94
316.42	3224.62
316.64	3232.25
316.85	3233.93
317.06	3276.01
317.28	3145.68
317.49	3164.86
317.70	3085.92
317.91	3078.66
318.13	3071.77
318.34	3112.35
318.55	3155.18
318.76	3131.72
318.98	3072.70
319.19	3143.26
319.40	3166.72
319.62	3189.62
319.83	3225.74
320.04	3246.96
320.25	3285.69
320.47	3347.50
320.68	3337.82
320.89	3297.04
321.10	3231.69
321.32	3239.14
321.53	3200.98
321.74	3127.06
321.95	3165.23
322.17	3162.81
322.38	3163.93
322.59	3125.57
322.80	3077.54
323.02	3211.21
323.23	3199.11
323.44	3291.27
323.65	3286.06
323.86	3331.30
324.08	3295.74
324.29	3255.53
324.50	3254.04
324.71	3336.51
324.93	3408.19
325.14	3423.65
325.35	3325.90
325.56	3387.34
325.78	3282.52
325.99	3285.87
326.20	3255.90
326.41	3342.66
326.62	3394.79
326.84	3386.22
327.05	3315.29
327.26	3227.60
327.47	3202.09
327.69	3179.56
327.90	3226.67
328.11	3327.76
328.32	3300.95
328.53	3298.35
328.75	3311.57
328.96	3283.08
329.17	3232.63
329.38	3189.06
329.59	3235.98
329.81	3292.02
330.02	3272.65
330.23	3301.51
330.44	3281.78
330.65	3319.38
330.87	3307.84
331.08	3215.68
331.29	3196.32
331.50	3240.45
331.71	3324.97
331.92	3296.30
332.14	3258.13
332.35	3354.20
332.56	3226.11
332.77	3177.89
332.98	3299.28
333.20	3282.52
333.41	3307.10
333.62	3285.87
333.83	3296.11
334.04	3271.16
334.25	3300.02
334.47	3259.25
334.68	3188.13
334.89	3207.31
335.10	3276.01
335.31	3111.98
335.52	3086.85
335.74	3136.74
335.95	3211.77
336.16	3194.27
336.37	3176.96
336.58	3149.59
336.79	3168.58
337.01	3152.75
337.22	3202.84
337.43	3094.48
337.64	3120.36
337.85	3142.70
338.06	3106.21
338.28	3063.95
338.49	3118.68
338.70	3135.81
338.91	3156.48
339.12	3171.00
339.33	3141.77
339.54	3165.79
339.76	3215.87
339.97	3219.03
340.18	3224.99
340.39	3228.90
340.60	3397.39
340.81	3371.52
341.02	3340.24
341.23	3334.47
341.45	3367.61
341.66	3389.20
341.87	3320.50
342.08	3276.56
342.29	3258.69
342.50	3296.67
342.71	3362.58
342.92	3196.32
343.14	3176.96
343.35	3207.31
343.56	3159.83
343.77	3144.19
343.98	3153.50
344.19	3235.60
344.40	3244.91
344.61	3285.13
344.82	3256.08
345.04	3169.88
345.25	3236.91
345.46	3267.25
345.67	3231.14
345.88	3246.03
346.09	3228.90
346.30	3287.73
346.51	3205.26
346.72	3272.10
346.94	3253.66
347.15	3277.49
347.36	3284.01
347.57	3292.02
347.78	3219.78
347.99	3212.33
348.20	3273.58
348.41	3316.96
348.62	3326.65
348.83	3371.14
349.04	3409.50
349.25	3387.90
349.47	3383.06
349.68	3385.66
349.89	3356.06
350.10	3438.91
350.31	3423.09
350.52	3409.31
350.73	3417.87
350.94	3381.01
351.15	3461.44
351.36	3346.01
351.57	3344.33
351.78	3296.48
351.99	3342.47
352.21	3291.83
352.42	3315.10
352.63	3361.83
352.84	3308.21
353.05	3334.47
353.26	3278.43
353.47	3130.41
353.68	3107.70
353.89	3130.97
354.10	3176.40
354.31	3119.80
354.52	3114.59
354.73	3171.75
354.94	3151.82
355.15	3208.42
355.36	3126.69
355.57	3231.69
355.78	3332.79
355.99	3386.04
356.20	3359.23
356.42	3402.61
356.63	3404.65
356.84	3390.13
357.05	3388.09
357.26	3367.05
357.47	3369.84
357.68	3387.53
357.89	3321.25
358.10	3209.73
358.31	3184.78
358.52	3214.57
358.73	3166.35
358.94	3190.18
359.15	3295.93
359.36	3186.45
359.57	3325.34
359.78	3325.53
359.99	3311.01
360.20	3374.87
360.41	3373.94
360.62	3364.44
360.83	3375.24
361.04	3398.14
361.25	3384.55
361.46	3345.08
361.67	3385.85
361.88	3287.92
362.09	3234.49
362.30	3230.39
362.51	3238.77
362.72	3305.79
362.93	3316.41
363.14	3280.85
363.35	3312.87
363.56	3404.65
363.77	3343.59
363.98	3285.69
364.19	3385.48
364.40	3465.54
364.61	3559.00
364.82	3469.63
365.03	3591.39
365.24	3670.33
365.45	3792.09
365.66	3681.13
365.87	3574.26
366.08	3654.69
366.29	3758.95
366.50	3677.97
366.71	3609.82
366.92	3589.53
367.13	3678.52
367.34	3518.04
367.55	3481.92
367.76	3425.88
367.97	3453.81
368.18	3713.15
368.39	3628.07
368.60	3515.25
368.81	3483.41
369.01	3520.46
369.22	3508.73
369.43	3498.68
369.64	3476.52
369.85	3467.40
370.06	3425.88
370.27	3416.76
370.48	3194.65
370.69	3193.53
370.90	3255.15
371.11	3344.89
371.32	3304.49
371.53	3219.59
371.74	3203.95
371.95	3307.47
372.16	3266.70
372.37	3232.25
372.58	3414.34
372.79	3407.26
372.99	3382.13
373.20	3410.24
373.41	3421.78
373.62	3554.90
373.83	3564.02
374.04	3474.84
374.25	3508.54
374.46	3528.28
374.67	3513.38
374.88	3325.90
375.09	3400.00
375.30	3505.01
375.51	3425.69
375.72	3311.19
375.92	3212.89
376.13	3230.58
376.34	3331.11
376.55	3272.84
376.76	3278.80
376.97	3444.50
377.18	3490.67
377.39	3472.42
377.60	3453.06
377.81	3493.65
378.02	3644.27
378.22	3593.44
378.43	3610.38
378.64	3555.27
378.85	3535.91
379.06	3534.24
379.27	3436.49
379.48	3559.74
379.69	3510.59
379.90	3569.98
380.11	3516.92
380.31	3501.84
380.52	3531.07
380.73	3553.04
380.94	3556.02
381.15	3565.89
381.36	3583.39
381.57	3587.48
381.78	3437.42
381.99	3414.71
382.19	3333.72
382.40	3335.77
382.61	3260.18
382.82	3318.45
383.03	3338.38
383.24	3329.07
383.45	3310.82
383.65	3310.26
383.86	3243.42
384.07	3249.94
384.28	3248.64
384.49	3321.06
384.70	3378.40
384.91	3315.85
385.12	3253.85
385.32	3238.96
385.53	3207.86
385.74	3182.73
385.95	3201.16
386.16	3245.47
386.37	3237.47
386.58	3289.22
386.78	3195.58
386.99	3225.55
387.20	3251.43
387.41	3283.45
387.62	3264.09
387.83	3315.29
388.03	3321.81
388.24	3316.59
388.45	3336.89
388.66	3333.91
388.87	3284.94
389.08	3298.72
389.28	3249.94
389.49	3309.33
389.70	3298.91
389.91	3330.56
390.12	3410.05
390.33	3444.68
390.53	3447.85
390.74	3495.88
390.95	3594.74
391.16	3606.10
391.37	3640.36
391.58	3671.82
391.78	3617.46
391.99	3631.23
392.20	3558.62
392.41	3480.62
392.62	3483.41
392.82	3518.78
393.03	3470.19
393.24	3386.78
393.45	3428.11
393.66	3415.08
393.87	3510.59
394.07	3609.27
394.28	3609.08
394.49	3735.12
394.70	3761.19
394.91	3746.48
395.11	3781.48
395.32	3814.99
395.53	3955.93
395.74	3925.03
395.94	3946.25
396.15	3874.76
396.36	3808.85
396.57	3801.40
396.78	3737.17
396.98	3787.25
397.19	3853.35
397.40	3815.55
397.61	3824.49
397.82	3760.82
398.02	3789.30
398.23	3781.30
398.44	3819.83
398.65	3925.96
398.85	4014.39
399.06	4137.46
399.27	4209.13
399.48	4212.86
399.69	4213.97
399.89	4222.54
400.10	4242.27
400.31	4292.54
400.52	4301.67
400.72	4221.61
400.93	4176.37
401.14	4221.24
401.35	4130.94
401.55	4047.34
401.76	4056.28
401.97	4067.27
402.18	4170.97
402.38	4103.57
402.59	4143.79
402.80	4200.01
403.01	4232.97
403.21	4307.44
403.42	4408.53
403.63	4471.27
403.84	4439.07
404.04	4391.59
404.25	4498.46
404.46	4391.03
404.67	4430.69
404.87	4362.73
405.08	4361.06
405.29	4485.24
405.50	4433.85
405.70	4247.30
405.91	4307.81
406.12	4324.01
406.32	4308.74
406.53	4210.25
406.74	4201.87
406.95	4193.12
407.15	4199.08
407.36	4131.87
407.57	4077.32
407.77	4014.20
407.98	3967.29
408.19	3808.29
408.40	3815.37
408.60	3973.25
408.81	3923.72
409.02	3906.59
409.22	3867.87
409.43	3847.57
409.64	3819.28
409.85	3712.22
410.05	3714.08
410.26	3855.95
410.47	3861.72
410.67	3799.54
410.88	3687.46
411.09	3723.77
411.29	3712.22
411.50	3757.28
411.71	3744.25
411.92	3774.59
412.12	3794.14
412.33	3862.10
412.54	3781.85
412.74	3816.86
412.95	3817.41
413.16	3864.70
413.36	3841.80
413.57	3926.70
413.78	3933.96
413.98	3961.33
414.19	3972.31
414.40	3952.21
414.60	3824.30
414.81	3756.72
415.02	3725.44
415.22	3784.27
415.43	3675.36
415.64	3664.37
415.84	3642.03
416.05	3562.53
416.26	3467.40
416.46	3422.16
416.67	3413.03
416.88	3456.04
417.08	3571.66
417.29	3511.89
417.50	3427.18
417.70	3452.32
417.91	3428.67
418.12	3372.45
418.32	3432.95
418.53	3474.47
418.74	3464.60
418.94	3424.76
419.15	3412.47
419.36	3315.48
419.56	3311.75
419.77	3394.42
419.97	3506.49
420.18	3575.94
420.39	3595.12
420.59	3606.85
420.80	3631.98
421.01	3628.81
421.21	3760.82
421.42	3817.60
421.63	3837.33
421.83	3923.54
422.04	3845.15
422.24	3733.45
422.45	3761.56
422.66	3733.07
422.86	3680.20
423.07	3627.70
423.28	3815.18
423.48	3682.81
423.69	3632.72
423.89	3675.17
424.10	3592.32
424.31	3666.05
424.51	3729.72
424.72	3618.95
424.92	3641.10
425.13	3652.09
425.34	3629.00
425.54	3465.54
425.75	3486.76
425.95	3474.84
426.16	3360.16
426.37	3345.64
426.57	3317.90
426.78	3277.31
426.98	3263.53
427.19	3188.69
427.40	3133.76
427.60	3203.40
427.81	3223.32
428.01	3257.76
428.22	3243.80
428.43	3286.80
428.63	3305.24
428.84	3249.94
429.04	3324.60
429.25	3390.51
429.45	3436.31
429.66	3458.27
429.87	3439.47
430.07	3387.71
430.28	3314.73
430.48	3303.56
430.69	3292.58
430.89	3300.21
431.10	3317.52
431.31	3149.78
431.51	3173.79
431.72	3182.54
431.92	3158.34
432.13	3145.87
432.33	3206.19
432.54	3318.64
432.74	3285.13
432.95	3335.21
433.16	3308.40
433.36	3289.60
433.57	3469.82
433.77	3387.71
433.98	3494.02
434.18	3570.54
434.39	3575.75
434.59	3601.26
434.80	3536.66
435.01	3620.62
435.21	3562.35
435.42	3591.95
435.62	3646.32
435.83	3523.81
436.03	3518.41
436.24	3415.83
436.44	3356.81
436.65	3365.00
436.85	3308.40
437.06	3311.01
437.26	3239.70
437.47	3274.70
437.67	3388.46
437.88	3352.71
438.08	3324.04
438.29	3349.17
438.50	3390.69
438.70	3360.90
438.91	3346.94
439.11	3307.28
439.32	3266.88
439.52	3333.91
439.73	3299.65
439.93	3183.85
440.14	3268.93
440.34	3311.38
440.55	3290.90
440.75	3220.34
440.96	3224.06
441.16	3208.42
441.37	3279.17
441.57	3297.23
441.78	3266.51
441.98	3294.25
442.19	3280.66
442.39	3169.14
442.60	3951.46
442.80	3922.05
443.01	4069.69
443.21	4076.02
443.42	4091.66
443.62	4059.82
443.83	4890.36
444.03	4862.44
444.23	4889.43
444.44	4911.22
444.64	4958.50
444.85	4195.17
445.05	4270.01
445.26	4228.31
445.46	4243.58
445.67	4225.15
445.87	4190.14
446.08	3403.72
446.28	3398.14
446.49	3419.36
446.69	3396.28
446.90	3401.30
447.10	3344.15
447.31	3291.64
447.51	3162.81
447.71	3184.22
447.92	3215.31
448.12	3266.51
448.33	3265.39
448.53	3283.64
448.74	3190.74
448.94	3229.46
449.15	3229.09
449.35	3280.47
449.56	3288.67
449.76	3328.14
449.96	3389.20
450.17	3409.31
450.37	3352.52
450.58	3350.10
450.78	3326.46
450.99	3324.23
451.19	3331.30
451.39	3376.54
451.60	3313.61
451.80	3334.84
452.01	3306.35
452.21	3237.65
452.42	3190.18
452.62	3243.98
452.82	3182.17
453.03	3183.29
453.23	3222.57
453.44	3198.74
453.64	3128.74
453.85	3162.25
454.05	3141.21
454.25	3203.21
454.46	3205.26
454.66	3268.37
454.87	3202.28
455.07	3237.28
455.27	3233.37
455.48	3225.74
455.68	3190.36
455.89	3154.24
456.09	3108.07
456.29	3125.20
456.50	3059.67
456.70	2992.83
456.91	2923.57
457.11	3043.84
457.31	3081.45
457.52	3228.90
457.72	3240.82
457.93	3365.93
458.13	3391.25
458.33	3507.98
458.54	3509.47
458.74	3504.26
458.95	3573.71
459.15	3565.70
459.35	3531.07
459.56	3493.83
459.76	3368.16
459.96	3382.69
460.17	3304.49
460.37	3341.17
460.58	3313.61
460.78	3339.31
460.98	3447.66
461.19	3498.49
461.39	3518.60
461.59	3494.95
461.80	3523.25
462.00	3569.98
462.21	3558.07
462.41	3528.28
462.61	3488.25
462.82	3402.05
463.02	3371.14
463.22	3342.66
463.43	3332.05
463.63	3316.41
463.83	3280.29
464.04	3224.25
464.24	3212.89
464.44	3237.47
464.65	3295.00
464.85	3739.59
465.05	3771.43
465.26	3785.39
465.46	3714.83
465.66	3669.22
465.87	3785.58
466.07	3814.06
466.27	3945.50
466.48	3970.08
466.68	3935.82
466.88	3901.38
467.09	3463.12
467.29	3515.99
467.49	3574.64
467.70	3581.71
467.90	3568.12
468.10	3434.44
468.31	3502.40
468.51	3455.48
468.71	3412.66
468.92	3372.26
469.12	3431.28
469.32	3427.18
469.53	3373.75
469.73	3269.49
469.93	3259.99
470.14	3286.06
470.34	3250.87
470.54	3144.19
470.74	3087.22
470.95	3089.45
471.15	3098.76
471.35	3014.24
471.56	3019.45
471.76	2997.11
471.96	2976.26
472.17	3038.44
472.37	3231.69
472.57	3319.01
472.77	3386.97
472.98	3362.58
473.18	3310.26
473.38	3438.35
473.59	3461.07
473.79	3462.74
473.99	3505.19
474.19	3561.23
474.40	3577.43
474.60	3390.51
474.80	3454.55
475.01	3460.69
475.21	3453.43
475.41	3480.06
475.61	3437.05
475.82	3450.83
476.02	3502.77
476.22	3499.23
476.42	3540.75
476.63	3525.30
476.83	3454.74
477.03	3367.79
477.24	3339.31
477.44	3393.67
477.64	3395.53
477.84	3308.21
478.05	3280.29
478.25	3340.61
478.45	3300.95
478.65	3223.50
478.86	3198.37
479.06	3274.52
479.26	3252.36
479.46	3239.89
479.67	3179.94
479.87	3209.54
480.07	3221.83
480.27	3301.51
480.48	3181.05
480.68	3227.78
480.88	3293.69
481.08	3265.77
481.28	3246.22
481.49	3290.34
481.69	3314.36
481.89	3414.34
482.09	3370.77
482.30	3335.40
482.50	3301.70
482.70	3266.32
482.90	3222.39
483.11	3222.39
483.31	3289.22
483.51	3285.69
483.71	3349.17
483.91	3346.38
484.12	3262.23
484.32	3370.77
484.52	3504.82
484.72	3490.86
484.92	3841.43
485.13	3818.16
485.33	3793.96
485.53	3776.08
485.73	3806.62
485.93	3706.64
486.14	3642.78
486.34	3773.10
486.54	3685.04
486.74	3644.64
486.94	3677.78
487.15	3356.62
487.35	3382.50
487.55	3394.97
487.75	3316.96
487.95	3376.73
488.16	3387.15
488.36	3426.62
488.56	3297.23
488.76	3290.15
488.96	3311.01
489.17	3324.41
489.37	3354.95
489.57	3394.60
489.77	3389.20
489.97	3379.15
490.17	3314.92
490.38	3333.53
490.58	3333.35
490.78	3380.08
490.98	3378.59
491.18	3307.10
491.38	3268.37
491.59	3268.19
491.79	3219.97
491.99	3236.72
492.19	3353.46
492.39	3324.97
492.59	3337.26
492.80	3306.54
493.00	3295.55
493.20	3345.08
493.40	3381.01
493.60	3379.71
493.80	3374.87
494.00	3557.14
494.21	3550.62
494.41	3500.54
494.61	3553.41
494.81	3525.67
495.01	3581.90
495.21	3578.73
495.41	3588.41
495.62	3544.48
495.82	3501.28
496.02	3506.87
496.22	3366.86
496.42	3322.18
496.62	3382.50
496.82	3321.99
497.02	3359.60
497.23	3305.05
497.43	3360.53
497.63	3347.68
497.83	3326.09
498.03	3319.76
498.23	3336.33
498.43	3299.09
498.63	3372.26
498.84	3317.90
499.04	3336.51
499.24	3357.18
499.44	3548.57
499.64	3565.33
499.84	3532.56
500.04	3631.61
500.24	3682.43
500.44	3697.70
500.65	3747.78
500.85	3750.39
501.05	3732.33
501.25	3795.63
501.45	3760.44
501.65	3611.69
501.85	3630.68
502.05	3679.08
502.25	3602.56
502.45	3705.52
502.65	3654.69
502.86	3655.81
503.06	3608.52
503.26	3715.20
503.46	3674.06
503.66	3689.88
503.86	3703.29
504.06	3720.97
504.26	3717.81
504.46	3726.56
504.66	3599.40
504.86	3611.87
505.06	3706.08
505.26	3877.36
505.47	3779.43
505.67	3852.23
505.87	3832.12
506.07	3811.27
506.27	3763.42
506.47	3713.90
506.67	3716.50
506.87	3724.88
507.07	3711.48
507.27	3574.08
507.47	3416.38
507.67	3467.58
507.87	3478.01
508.07	3462.00
508.27	3495.88
508.47	3486.76
508.67	3496.07
508.87	3554.53
509.08	3556.20
509.28	3634.59
509.48	3723.21
509.68	3742.01
509.88	3730.10
510.08	3617.64
510.28	3655.44
510.48	3666.05
510.68	3650.60
510.88	3645.20
511.08	3609.45
511.28	3583.01
511.48	3593.44
511.68	3498.12
511.88	3483.78
512.08	3474.29
512.28	3510.22
512.48	3557.32
512.68	3556.95
512.88	3556.39
513.08	3533.30
513.28	3539.45
513.48	3631.42
513.68	3592.32
513.88	3662.89
514.08	3641.10
514.28	3645.57
514.48	3738.85
514.68	3759.14
514.88	3752.44
515.08	3727.86
515.28	3774.78
515.48	3782.60
515.68	3738.47
515.88	3792.28
516.08	3742.20
516.28	3773.48
516.48	3735.50
516.68	3675.55
516.88	3626.39
517.08	3657.30
517.28	3742.01
517.48	3802.71
517.68	3813.32
517.88	3790.60
518.08	3743.50
518.28	3802.71
518.48	3845.71
518.68	3938.80
518.88	3886.30
519.08	3917.02
519.28	3948.48
519.48	3893.93
519.68	3851.30
519.88	3822.63
520.08	3849.25
520.28	3847.57
520.48	3798.61
520.68	3740.71
520.88	3768.26
521.08	3781.85
521.28	3722.09
521.47	3629.93
521.67	3619.69
521.87	3674.06
522.07	3761.19
522.27	3755.60
522.47	3705.89
522.67	3692.30
522.87	3728.05
523.07	3664.56
523.27	3643.34
523.47	3704.40
523.67	3718.55
523.87	3718.37
524.07	3707.38
524.27	3632.54
524.47	3645.38
524.67	3738.85
524.87	3784.83
525.06	3806.24
525.26	3762.49
525.46	3930.80
525.66	3878.11
525.86	3873.83
526.06	3844.22
526.26	3800.29
526.46	3802.52
526.66	3832.68
526.86	3812.76
527.06	3791.91
527.26	3825.05
527.46	3848.51
527.65	3731.21
527.85	3769.94
528.05	3799.73
528.25	3920.56
528.45	3925.77
528.65	3968.22
528.85	3938.24
529.05	3982.55
529.25	4047.16
529.45	4001.36
529.65	4059.63
529.84	4078.81
530.04	4104.13
530.24	4106.18
530.44	4008.06
530.64	4042.50
530.84	4575.53
531.04	4650.01
531.24	4786.10
531.44	4756.50
531.63	4741.98
531.83	4736.21
532.03	4874.72
532.23	4873.05
532.43	4925.18
532.63	4976.75
532.83	4968.00
533.03	4433.48
533.22	4409.46
533.42	4223.84
533.62	4257.35
533.82	4323.45
534.02	4276.53
534.22	4132.99
534.42	4141.55
534.62	4151.42
534.81	4129.64
535.01	4163.89
535.21	4218.63
535.41	4220.12
535.61	4252.33
535.81	4216.02
536.01	4234.45
536.20	4303.53
536.40	4315.44
536.60	4456.57
536.80	4423.80
537.00	4447.26
537.20	4394.57
537.39	4459.55
537.59	4575.35
537.79	4623.57
537.99	4632.32
538.19	4698.97
538.39	4781.45
538.59	4808.26
538.78	4724.48
538.98	4762.27
539.18	4764.88
539.38	4827.43
539.58	4693.01
539.78	4603.28
539.97	4616.87
540.17	4719.26
540.37	4646.28
540.57	4608.30
540.77	4612.03
540.96	4562.69
541.16	4671.23
541.36	4787.59
541.56	4808.82
541.76	4975.45
541.96	5012.87
542.15	5004.68
542.35	5026.65
542.55	5020.13
542.75	4954.97
542.95	5087.53
543.14	5113.78
543.34	4957.95
543.54	4866.90
543.74	4826.50
543.94	4756.50
544.13	4693.39
544.33	4672.16
544.53	4615.00
544.73	4641.81
544.93	4674.77
545.12	4651.31
545.32	4754.45
545.52	4838.05
545.72	4845.87
545.91	4910.28
546.11	4965.58
546.31	5025.90
546.51	5066.49
546.71	5051.59
546.90	5018.08
547.10	5134.63
547.30	5147.48
547.50	5054.39
547.69	5095.35
547.89	5146.55
548.09	5155.85
548.29	5109.50
548.49	5158.65
548.68	5143.38
548.88	5133.70
549.08	5239.08
549.28	5129.23
549.47	5096.09
549.67	5096.84
549.87	5100.37
550.07	5060.90
550.26	5055.50
550.46	5153.06
550.66	5117.13
550.86	5134.26
551.05	5196.81
551.25	5119.36
551.45	5172.61
551.65	5130.35
551.84	5165.72
552.04	5124.02
552.24	5248.57
552.44	5292.51
552.63	5183.04
552.83	5288.60
553.03	5345.01
553.22	5344.27
553.42	5359.16
553.62	5331.79
553.82	5458.40
554.01	5451.32
554.21	5431.59
554.41	5350.97
554.61	5347.62
554.80	5397.14
555.00	5297.54
555.20	5256.58
555.39	5284.13
555.59	5396.77
555.79	5504.20
555.99	5403.66
556.18	5484.27
556.38	5548.51
556.58	5588.53
556.77	5669.15
556.97	5741.57
557.17	5839.69
557.37	5850.30
557.56	5988.26
557.76	5966.29
557.96	6029.22
558.15	6053.80
558.35	6077.07
558.55	6182.63
558.74	6285.59
558.94	6382.22
559.14	6363.78
559.33	6354.29
559.53	6427.27
559.73	6311.09
559.93	6304.21
560.12	6202.92
560.32	6229.55
560.52	6187.10
560.71	6151.35
560.91	6100.34
561.11	6027.54
561.30	6076.88
561.50	6060.50
561.70	6193.99
561.89	6208.51
562.09	6577.70
562.29	6655.71
562.48	6687.18
562.68	6828.11
562.88	6805.40
563.07	6843.75
563.27	6821.41
563.47	6818.99
563.66	6846.92
563.86	6763.14
564.06	6784.73
564.25	6499.69
564.45	6594.65
564.64	6628.72
564.84	6571.37
565.04	6690.53
565.23	6749.17
565.43	6775.98
565.63	6788.83
565.82	6845.99
566.02	6934.79
566.22	7021.93
566.41	6976.13
566.61	6886.02
566.81	6957.32
567.00	6990.09
567.20	6999.77
567.39	6977.43
567.59	7015.60
567.79	7093.79
567.98	7109.62
568.18	7022.48
568.38	7024.35
568.57	7075.92
568.77	7123.39
568.96	7134.38
569.16	7089.14
569.36	7153.93
569.55	7134.38
569.75	7206.43
569.94	7208.85
570.14	7359.10
570.34	7424.45
570.53	7435.43
570.73	7524.80
570.92	7563.33
571.12	7630.55
571.32	7760.68
571.51	7779.30
571.71	7869.23
571.90	7917.07
572.10	7962.87
572.30	7888.59
572.49	7901.62
572.69	7956.73
572.88	8010.72
573.08	8020.22
573.28	8022.82
573.47	8046.47
573.67	7983.91
573.86	8056.34
574.06	8023.01
574.26	8032.51
574.45	8029.53
574.65	8058.01
574.84	8096.18
575.04	8078.49
575.23	8113.87
575.43	8145.52
575.63	8149.05
575.82	8299.67
576.02	8328.34
576.21	8411.94
576.41	8432.60
576.60	8538.73
576.80	8626.23
576.99	8721.37
577.19	8730.30
577.39	8784.11
577.58	8793.61
577.78	8844.25
577.97	8806.27
578.17	8776.66
578.36	8770.71
578.56	8852.25
578.75	8838.66
578.95	8881.48
579.15	8881.11
579.34	9063.19
579.54	9088.14
579.73	9245.28
579.93	9356.61
580.12	9431.08
580.32	9545.02
580.51	9666.60
580.71	9716.31
580.90	9825.41
581.10	9861.71
581.29	9928.74
581.49	10052.36
581.68	10306.31
581.88	10230.35
582.07	10229.23
582.27	10272.80
582.47	10309.29
582.66	10318.78
582.86	10396.05
583.05	10434.77
583.25	10436.82
583.44	10487.46
583.64	10417.46
583.83	10286.95
584.03	10384.69
584.22	10424.16
584.42	10492.30
584.61	10525.44
584.81	10577.94
585.00	10597.12
585.20	10659.68
585.39	10810.85
585.59	10843.99
585.78	10837.85
585.98	10958.87
586.17	11061.82
586.37	11211.33
586.56	11261.97
586.76	11352.45
586.95	11356.17
587.15	11408.49
587.34	11422.27
587.54	11430.46
587.73	11466.95
587.92	11602.67
588.12	11629.30
588.31	11637.49
588.51	11614.59
588.70	11649.59
588.90	11666.53
589.09	11780.10
589.29	11833.54
589.48	11932.58
589.68	11989.93
589.87	12116.16
590.07	12220.23
590.26	12296.94
590.46	12380.72
590.65	12445.88
590.84	12532.82
591.04	12613.44
591.23	12624.98
591.43	12707.09
591.62	12752.14
591.82	12914.30
592.01	12950.24
592.21	13039.04
592.40	13014.84
592.59	13021.73
592.79	13025.27
592.98	13206.61
593.18	13246.45
593.37	13301.56
593.57	13380.12
593.76	13403.96
593.96	13355.55
594.15	13395.02
594.34	13357.41
594.54	13437.28
594.73	13536.33
594.93	13700.35
595.12	13609.31
595.32	13789.72
595.51	13902.73
595.70	14023.37
595.90	14116.28
596.09	14241.95
596.29	14279.18
596.48	14323.87
596.67	14405.04
596.87	14496.64
597.06	14661.97
597.26	14743.33
597.45	14671.09
597.65	14736.62
597.84	14709.44
598.03	14795.08
598.23	14793.22
598.42	14989.46
598.62	15034.32
598.81	15131.88
599.00	15149.94
599.20	15119.78
599.39	15223.11
599.58	15303.73
599.78	15405.19
599.97	15492.88
600.17	15574.43
600.36	15642.76
600.55	15600.87
600.75	15673.10
600.94	15744.60
601.14	15844.02
601.33	15859.28
601.52	15892.80
601.72	15939.71
601.91	15981.79
602.10	15993.89
602.30	16050.30
602.49	16185.66
602.69	16283.77
602.88	16370.35
603.07	16401.25
603.27	16476.47
603.46	16576.82
603.65	16616.47
603.85	16734.88
604.04	16782.73
604.23	16852.36
604.43	16852.55
604.62	16905.98
604.82	16935.40
605.01	17033.14
605.20	17081.36
605.40	17139.08
605.59	17165.52
605.78	17283.93
605.98	17328.24
606.17	17351.14
606.36	17527.63
606.56	17729.64
606.75	17763.71
606.94	17808.39
607.14	17769.29
607.33	17888.26
607.52	18005.74
607.72	18229.34
607.91	18249.26
608.10	18323.18
608.30	18402.86
608.49	18459.65
608.68	18507.49
608.88	18631.86
609.07	18722.34
609.26	18811.90
609.46	18855.09
609.65	19022.46
609.84	18863.84
610.03	18952.83
610.23	19028.24
610.42	19140.87
610.61	19165.45
610.81	19129.33
611.00	19135.10
611.19	19174.39
611.39	19265.99
611.58	19338.41
611.77	19266.73
611.97	19395.38
612.16	19458.31
612.35	19500.57
612.54	19575.42
612.74	19608.74
612.93	19694.57
613.12	19789.52
613.32	19856.73
613.51	19918.17
613.70	19991.53
613.89	20194.46
614.09	20226.67
614.28	20281.59
614.47	20328.32
614.67	20353.46
614.86	20449.34
615.05	20485.83
615.24	20480.80
615.44	20545.59
615.63	20665.87
615.82	20854.65
616.01	20737.36
616.21	20823.93
616.40	20836.96
616.59	20965.43
616.78	21022.40
616.98	20993.17
617.17	21079.93
617.36	21192.94
617.56	21347.47
617.75	21332.95
617.94	21264.99
618.13	21410.21
618.33	21461.78
618.52	21580.56
618.71	21588.57
618.90	21651.31
619.10	21796.35
619.29	21801.93
619.48	21803.42
619.67	21881.62
619.86	21985.69
620.06	22031.49
620.25	22072.26
620.44	22150.27
620.63	22221.76
620.83	22313.92
621.02	22398.82
621.21	22484.65
621.40	22573.83
621.60	22610.69
621.79	22540.87
621.98	22571.22
622.17	22578.67
622.36	22537.71
622.56	22564.71
622.75	22565.08
622.94	22653.33
623.13	22623.72
623.33	22566.94
623.52	22616.84
623.71	22591.70
623.90	22681.25
624.09	22687.58
624.29	22720.17
624.48	22709.37
624.67	22674.37
624.86	22679.95
625.05	22684.98
625.25	22761.50
625.44	22781.42
625.63	22816.05
625.82	22870.60
626.01	23503.05
626.21	23476.61
626.40	23471.96
626.59	23538.42
626.78	23633.75
626.97	23740.05
627.16	23634.86
627.36	23631.33
627.55	23573.61
627.74	23523.34
627.93	23560.39
628.12	22945.63
628.31	22975.04
628.51	22923.29
628.70	22917.89
628.89	22795.01
629.08	22724.45
629.27	22698.75
629.47	22656.12
629.66	22620.75
629.85	22691.49
630.04	22609.95
630.23	22526.35
630.42	22418.93
630.61	22385.23
630.81	22290.46
631.00	22320.81
631.19	22177.08
631.38	22182.67
631.57	22067.98
631.76	22039.68
631.96	21984.94
632.15	21924.06
632.34	21924.25
632.53	21981.41
632.72	22018.27
632.91	21931.32
633.10	21854.62
633.29	21915.69
633.49	21781.82
633.68	21767.12
633.87	21772.33
634.06	21576.47
634.25	21532.72
634.44	21491.57
634.63	21382.28
634.83	21233.90
635.02	21163.71
635.21	21046.23
635.40	20979.58
635.59	20912.74
635.78	20890.58
635.97	20795.63
636.16	20767.52
636.35	20734.19
636.55	20581.34
636.74	20502.77
636.93	20438.73
637.12	20359.97
637.31	20365.37
637.50	20189.06
637.69	20078.29
637.88	19938.47
638.07	19930.83
638.26	19824.52
638.46	19715.24
638.65	19647.28
638.84	19575.04
639.03	19593.29
639.22	19573.93
639.41	19463.90
639.60	19413.63
639.79	19382.53
639.98	19276.60
640.17	19105.50
640.36	19048.34
640.56	18935.33
640.75	18817.85
640.94	18687.34
641.13	18546.22
641.32	18438.79
641.51	18359.67
641.70	18231.58
641.89	18136.25
642.08	18220.22
642.27	18204.02
642.46	18174.98
642.65	18143.89
642.84	18139.42
643.03	18088.59
643.22	18017.10
643.42	17986.38
643.61	17828.50
643.80	17808.21
643.99	17747.51
644.18	17527.08
644.37	17406.24
644.56	17227.89
644.75	17129.77
644.94	16961.46
645.13	16861.49
645.32	16806.00
645.51	16746.80
645.70	16709.75
645.89	16627.09
646.08	16546.28
646.27	16561.36
646.46	16472.74
646.65	16408.88
646.84	16345.21
647.03	16260.69
647.22	16130.92
647.41	16011.39
647.60	15874.92
647.79	15851.09
647.98	15768.06
648.17	15692.47
648.36	15547.43
648.56	15502.94
648.75	15485.99
648.94	15359.02
649.13	15272.26
649.32	15230.19
649.51	15086.08
649.70	14901.58
649.89	14775.16
650.08	14623.99
650.27	14609.65
650.46	14448.42
650.65	14303.20
650.84	14221.47
651.03	14163.19
651.22	14116.46
651.41	14044.97
651.60	13981.30
651.79	13941.64
651.98	13803.31
652.17	13830.31
652.36	13605.21
652.55	13505.61
652.74	13362.07
652.92	13300.81
653.11	13203.25
653.30	13096.76
653.49	12953.03
653.68	12828.48
653.87	12807.44
654.06	12759.96
654.25	12524.26
654.44	12466.73
654.63	12481.62
654.82	12443.46
655.01	12220.42
655.20	12182.44
655.39	12092.51
655.58	12038.52
655.77	11979.13
655.96	11912.29
656.15	11856.81
656.34	11854.95
656.53	11771.17
656.72	11743.43
656.91	11656.48
657.10	11633.95
657.29	11566.93
657.48	11555.38
657.67	11500.09
657.86	11425.62
658.04	11295.48
658.23	11234.04
658.42	11155.47
658.61	11077.09
658.80	10864.29
658.99	10762.08
659.18	10673.83
659.37	10532.33
659.56	10332.75
659.75	10273.17
659.94	10251.20
660.13	10216.20
660.32	10060.37
660.51	9950.52
660.69	9904.16
660.88	9864.32
661.07	9787.06
661.26	9746.47
661.45	9759.13
661.64	9729.90
661.83	9845.33
662.02	9699.92
662.21	9608.88
662.40	9592.13
662.59	9555.64
662.78	9518.59
662.96	9478.19
663.15	9446.35
663.34	9376.16
663.53	9297.59
663.72	9266.50
663.91	9020.93
664.10	8936.22
664.29	8833.45
664.48	8822.65
664.66	8842.57
664.85	8767.91
665.04	8655.46
665.23	8602.40
665.42	8543.01
665.61	8459.23
665.80	8481.01
665.99	8373.96
666.18	8458.11
666.36	8430.74
666.55	8289.25
666.74	8176.61
666.93	8198.21
667.12	8235.25
667.31	8221.11
667.50	8146.82
667.69	8103.63
667.87	7996.20
668.06	7974.98
668.25	7830.50
668.44	7780.05
668.63	7735.92
668.82	7699.62
669.01	7561.10
669.19	7467.82
669.38	7395.96
669.57	7382.55
669.76	7362.63
669.95	7346.62
670.14	7388.70
670.32	7344.39
670.51	7291.89
670.70	7247.95
670.89	7240.13
671.08	7271.22
671.27	7220.02
671.46	7211.64
671.64	7162.68
671.83	7193.77
672.02	7154.30
672.21	7063.82
672.40	7104.96
672.59	7069.40
672.77	7144.06
672.96	7072.75
673.15	6939.26
673.34	6904.45
673.53	6873.17
673.71	6811.36
673.90	6670.98
674.09	6534.14
674.28	6469.72
674.47	6355.03
674.66	6363.78
674.84	6323.57
675.03	6261.39
675.22	6290.43
675.41	6241.46
675.60	6203.30
675.78	6183.93
675.97	6172.58
676.16	6187.29
676.35	6141.49
676.54	6262.87
676.72	6192.69
676.91	6128.08
677.10	6092.33
677.29	6020.66
677.47	6136.09
677.66	6118.96
677.85	6058.08
678.04	5984.91
678.23	6002.04
678.41	5988.63
678.60	5799.10
678.79	5797.61
678.98	5814.74
679.17	5794.45
679.35	5953.07
679.54	5833.92
679.73	5732.45
679.92	5745.48
680.10	5826.66
680.29	5736.55
680.48	5744.92
680.67	5777.32
680.85	5696.52
681.04	5752.56
681.23	5827.59
681.42	5637.69
681.60	5587.79
681.79	5581.65
681.98	5566.01
682.17	5431.40
682.35	5473.48
682.54	5444.06
682.73	5429.35
682.92	5470.68
683.10	5260.67
683.29	5197.19
683.48	5201.65
683.67	5232.56
683.85	5250.81
684.04	5273.52
684.23	5281.34
684.42	5246.15
684.60	5208.17
684.79	5175.40
684.98	5159.39
685.16	5177.26
685.35	5092.18
685.54	5178.94
685.73	5198.49
685.91	5138.73
686.10	5020.87
686.29	4998.72
686.48	4916.99
686.66	4942.68
686.85	4929.46
687.04	5004.68
687.22	4985.13
687.41	4961.86
687.60	4816.26
687.78	4725.97
687.97	4750.73
688.16	4766.37
688.35	4764.69
688.53	4785.54
688.72	4763.58
688.91	4721.87
689.09	4656.52
689.28	4662.48
689.47	4688.17
689.65	4727.27
689.84	4684.08
690.03	4720.94
690.22	4784.80
690.40	4781.26
690.59	4767.49
690.78	4724.29
690.96	4713.12
691.15	4680.35
691.34	4628.97
691.52	4672.91
691.71	4629.53
691.90	4586.89
692.08	4535.51
692.27	4490.45
692.46	4473.14
692.64	4477.42
692.83	4519.31
693.02	4582.05
693.20	4506.09
693.39	4585.40
693.58	4491.75
693.76	4471.46
693.95	4581.12
694.14	4545.75
694.32	4534.58
694.51	4538.30
694.70	4537.00
694.88	4484.87
695.07	4435.16
695.25	4578.89
695.44	4542.95
695.63	4543.88
695.81	4557.66
696.00	4522.47
696.19	4553.38
696.37	4618.91
696.56	4674.40
696.75	4637.35
696.93	4620.96
697.12	4600.48
697.30	4502.74
697.49	4471.65
697.68	4481.33
697.86	4469.78
698.05	4426.96
698.24	4431.25
698.42	4335.92
698.61	4304.83
698.79	4260.71
698.98	4302.22
699.17	4750.36
699.35	4737.14
699.54	4683.89
699.72	4678.12
699.91	4739.00
700.10	4748.87
700.28	4657.64
700.47	4685.38
700.65	4628.22
700.84	4634.55
701.03	4663.97
701.21	4250.28
701.40	4289.01
701.58	4280.07
701.77	4441.86
701.96	4405.74
702.14	4388.98
702.33	4439.81
702.51	4386.56
702.70	4372.97
702.89	4383.96
703.07	4266.29
703.26	4248.23
703.44	4349.14
703.63	4448.37
703.81	4343.37
704.00	4278.58
704.19	4312.46
704.37	4296.64
704.56	4308.74
704.74	4267.04
704.93	4297.94
705.11	4322.70
705.30	4300.18
705.49	4102.08
705.67	4019.42
705.86	4026.68
706.04	4083.46
706.23	3981.07
706.41	4020.72
706.60	4216.02
706.78	4236.50
706.97	4254.00
707.16	4273.18
707.34	4254.75
707.53	4294.96
707.71	4315.63
707.90	4340.02
708.08	4288.63
708.27	4297.94
708.45	4223.47
708.64	4031.52
708.82	4037.48
709.01	3982.37
709.19	3935.27
709.38	3947.55
709.56	3969.89
709.75	3988.33
709.94	4000.99
710.12	3967.10
710.31	4057.21
710.49	4165.38
710.68	4192.56
710.86	4156.07
711.05	4215.28
711.23	4204.48
711.42	4255.87
711.60	4214.16
711.79	4218.07
711.97	4079.55
712.16	4229.43
712.34	4261.82
712.53	4199.83
712.71	4229.99
712.90	4250.28
713.08	4362.73
713.27	4447.63
713.45	4410.77
713.64	4420.26
713.82	4454.70
714.01	4467.92
714.19	4419.89
714.38	4459.17
714.56	4975.26
714.75	4916.24
714.93	4899.11
715.12	4725.41
715.30	4756.31
715.49	4725.04
715.67	4727.27
715.85	4627.29
716.04	4655.78
716.22	4653.36
716.41	4476.86
716.59	3937.13
716.78	3922.42
716.96	3998.01
717.15	4006.39
717.33	3921.30
717.52	3973.80
717.70	3971.57
717.89	4764.32
718.07	4762.46
718.25	4794.29
718.44	4898.74
718.62	4970.79
718.81	4980.47
718.99	4939.70
719.18	4959.44
719.36	4974.33
719.55	4935.23
719.73	4987.73
719.92	4266.11
720.10	4178.97
720.28	4074.53
720.47	4032.08
720.65	3925.21
720.84	3863.96
721.02	3961.14
721.21	3935.82
721.39	3973.80
721.57	3945.32
721.76	3854.65
721.94	3787.07
722.13	3881.83
722.31	3890.95
722.50	3858.00
722.68	4021.47
722.86	4136.52
723.05	4051.63
723.23	4125.17
723.42	4095.75
723.60	4133.17
723.78	4109.90
723.97	4143.23
724.15	4060.00
724.34	4052.00
724.52	4069.50
724.70	3902.68
724.89	3843.48
725.07	3803.26
725.26	3719.30
725.44	3809.78
725.62	3770.12
725.81	3820.39
725.99	3777.94
726.18	3819.65
726.36	3823.74
726.54	3838.64
726.73	3840.13
726.91	3876.06
727.10	3930.98
727.28	3934.33
727.46	3849.81
727.65	3825.23
727.83	3895.42
728.01	3925.96
728.20	3946.06
728.38	3947.55
728.57	3921.67
728.75	3930.98
728.93	3865.63
729.12	3796.00
729.30	3815.74
729.48	3768.63
729.67	3773.66
729.85	3700.31
730.03	3673.87
730.22	3686.34
730.40	3711.29
730.58	3666.24
730.77	3663.82
730.95	3756.53
731.13	3744.06
731.32	3726.93
731.50	3741.45
731.69	3769.57
731.87	3819.28
732.05	3831.75
732.24	3794.33
732.42	3744.06
732.60	3810.34
732.79	3789.11
732.97	3686.90
733.15	3700.49
733.34	3666.61
733.52	3657.30
733.70	3640.73
733.89	3552.11
734.07	3629.93
734.25	3604.98
734.43	3603.12
734.62	3585.62
734.80	3626.58
734.98	3689.51
735.17	3754.30
735.35	3806.24
735.53	3875.32
735.72	3921.86
735.90	3978.27
736.08	3893.75
736.27	3869.92
736.45	3915.90
736.63	3899.89
736.81	3863.77
737.00	3836.03
737.18	3848.32
737.36	3848.88
737.55	3804.38
737.73	3769.75
737.91	3692.67
738.10	3737.17
738.28	3790.42
738.46	3799.17
738.64	3949.23
738.83	3965.98
739.01	3945.50
739.19	3884.81
739.38	3879.23
739.56	3837.52
739.74	3834.73
739.92	3990.75
740.11	4013.46
740.29	4004.52
740.47	3952.77
740.65	3795.26
740.84	3900.82
741.02	4008.43
741.20	4078.25
741.38	4118.28
741.57	4170.22
741.75	4269.08
741.93	4119.95
742.11	4025.00
742.30	4095.19
742.48	4127.03
742.66	4136.52
742.84	4047.34
743.03	3933.40
743.21	3862.84
743.39	3865.08
743.57	3811.83
743.76	3687.09
743.94	3816.67
744.12	3900.45
744.30	3832.49
744.49	3778.13
744.67	3825.05
744.85	3845.15
745.03	3878.29
745.22	3870.10
745.40	3890.40
745.58	3933.78
745.76	3984.04
745.94	3854.84
746.13	3802.71
746.31	3898.22
746.49	3960.59
746.67	3889.28
746.86	3884.25
747.04	3849.81
747.22	3825.05
747.40	3758.77
747.58	3718.55
747.77	3670.52
747.95	3683.55
748.13	3651.90
748.31	3527.72
748.49	3508.36
748.68	3559.74
748.86	3516.36
749.04	3520.27
749.22	3525.67
749.40	3526.04
749.59	3588.97
749.77	3626.77
749.95	3653.76
750.13	3781.85
750.31	3838.27
750.49	3824.67
750.68	3810.34
750.86	3852.42
751.04	3814.25
751.22	3910.32
751.40	3875.32
751.59	3799.17
751.77	3762.12
751.95	3717.99
752.13	3638.50
752.31	3587.67
752.49	3591.76
752.68	3600.52
752.86	3578.36
753.04	3652.65
753.22	3649.48
753.40	3697.89
753.58	3704.59
753.76	3788.93
753.95	3917.02
754.13	3878.67
754.31	3882.20
754.49	3950.35
754.67	3947.55
754.85	4009.55
755.04	3963.56
755.22	3907.71
755.40	3936.20
755.58	3919.25
755.76	3896.17
755.94	3777.76
756.12	3837.71
756.30	3945.50
756.49	3862.47
756.67	3830.45
756.85	3741.64
757.03	3773.29
757.21	3765.84
757.39	3675.73
757.57	3702.17
757.75	3660.09
757.94	3737.54
758.12	3737.17
758.30	3675.92
758.48	3658.42
758.66	3703.84
758.84	3747.22
759.02	3700.68
759.20	3735.31
759.38	3799.73
759.57	3778.69
759.75	3998.38
759.93	3924.65
760.11	3915.16
760.29	3879.23
760.47	3874.20
760.65	3850.74
760.83	3843.48
761.01	3864.70
761.19	3846.09
761.38	3843.85
761.56	4007.13
761.74	3865.26
761.92	3860.61
762.10	3905.66
762.28	3914.60
762.46	3949.97
762.64	3934.52
762.82	3910.69
763.00	3980.13
763.18	3976.04
763.36	4007.87
763.54	3861.91
763.73	3832.68
763.91	3934.71
764.09	3916.83
764.27	3878.48
764.45	3866.57
764.63	3910.69
764.81	3918.51
764.99	3898.96
765.17	3941.78
765.35	3887.98
765.53	3883.88
765.71	3858.19
765.89	3769.01
766.07	3736.05
766.25	3718.55
766.43	3754.67
766.61	3714.27
766.79	3714.83
766.98	3678.71
767.16	3677.78
767.34	3673.13
767.52	3664.56
767.70	3643.34
767.88	3640.17
768.06	3589.90
768.24	3636.26
768.42	3588.60
768.60	3560.86
768.78	3595.30
768.96	3548.57
769.14	3510.40
769.32	3483.41
769.50	3529.95
769.68	3580.04
769.86	3609.64
770.04	3640.17
770.22	3661.77
770.40	3658.98
770.58	3714.83
770.76	3657.11
770.94	3761.93
771.12	3767.15
771.30	3863.77
771.48	3867.68
771.66	3810.15
771.84	3770.50
772.02	3757.84
772.20	3788.56
772.38	3894.86
772.56	3913.30
772.74	3975.67
772.92	3881.09
773.10	3861.17
773.28	3862.47
773.46	3810.53
773.64	3792.65
773.82	3870.10
774.00	3884.25
774.18	3823.19
774.36	3720.23
774.54	3688.58
774.72	3668.84
774.90	3702.36
775.08	3723.39
775.26	3688.76
775.44	3769.01
775.62	3801.77
775.80	3748.90
775.97	3693.60
776.15	3692.12
776.33	3716.13
776.51	3719.86
776.69	3747.97
776.87	3771.99
777.05	3749.46
777.23	3737.36
777.41	3652.83
777.59	3612.43
777.77	3580.59
777.95	3731.59
778.13	3772.73
778.31	3817.23
778.49	3849.44
778.67	3780.18
778.85	3727.30
779.03	3712.59
779.21	3693.60
779.38	3847.76
779.56	3919.44
779.74	3931.73
779.92	3804.94
780.10	3814.99
780.28	3835.29
780.46	3761.00
780.64	3845.15
780.82	3849.06
781.00	3853.53
781.18	3816.48
781.36	3685.60
781.53	3638.68
781.71	3664.37
781.89	3701.80
782.07	3599.21
782.25	3571.66
782.43	3605.17
782.61	3546.52
782.79	3662.14
782.97	3651.53
783.15	3680.39
783.33	4286.40
783.50	4266.85
783.68	4220.12
783.86	4245.44
784.04	4334.06
784.22	4359.38
784.40	4365.90
784.58	4372.41
784.76	4267.78
784.94	4290.31
785.11	4263.87
785.29	3626.77
785.47	3619.51
785.65	3643.34
785.83	3585.99
786.01	3553.60
786.19	3475.03
786.37	3444.31
786.54	3428.30
786.72	3453.43
786.90	3482.85
787.08	3478.94
787.26	3518.22
787.44	3529.58
787.62	3560.67
787.79	3542.24
787.97	3530.14
788.15	3534.79
788.33	3530.70
788.51	3570.91
788.69	3524.18
788.87	3514.50
789.04	3545.22
789.22	3526.04
789.40	3483.78
789.58	3447.10
789.76	3439.28
789.94	3455.85
790.11	3441.70
790.29	3511.15
790.47	3433.89
790.65	3473.54
790.83	3437.79
791.01	3458.46
791.18	3509.47
791.36	3560.49
791.54	3589.34
791.72	3667.54
791.90	3759.14
792.07	3746.85
792.25	3774.78
792.43	3854.46
792.61	3885.18
792.79	3874.94
792.97	3813.13
793.14	3804.57
793.32	3789.11
793.50	3776.27
793.68	3802.15
793.86	3705.15
794.03	3760.26
794.21	3765.28
794.39	3704.03
794.57	3718.93
794.75	3709.06
794.92	3740.52
795.10	3720.04
795.28	3728.79
795.46	3731.21
795.64	3673.87
795.81	3688.02
795.99	3623.97
796.17	3564.40
796.35	3571.47
796.52	3476.15
796.70	3489.37
796.88	3504.45
797.06	3450.64
797.24	3445.80
797.41	3464.60
797.59	3455.11
797.77	3463.67
797.95	3538.89
798.12	3489.92
798.30	3502.77
798.48	3553.23
798.66	3548.76
798.83	3645.20
799.01	3716.50
799.19	3771.43
799.37	3760.26
799.54	3772.73
799.72	3817.23
799.90	3782.23
800.08	3782.23
800.25	3755.23
800.43	3759.51
800.61	3779.06
800.79	3674.24
800.96	3664.37
801.14	3633.47
801.32	3645.57
801.50	3652.65
801.67	3594.19
801.85	3717.99
802.03	3702.36
802.21	3810.53
802.38	3843.11
802.56	3798.42
802.74	3812.57
802.91	3773.48
803.09	3824.30
803.27	3935.82
803.45	3941.78
803.62	3905.48
803.80	3854.46
803.98	4029.47
804.15	3966.92
804.33	3855.02
804.51	3864.33
804.69	3829.33
804.86	3835.66
805.04	3812.57
805.22	3655.62
805.39	3696.40
805.57	3685.60
805.75	3571.10
805.92	3518.60
806.10	3454.92
806.28	3466.28
806.45	3570.73
806.63	3576.50
806.81	3617.83
806.99	3590.65
807.16	3606.47
807.34	3595.49
807.52	3609.82
807.69	3748.71
807.87	3616.15
808.05	3739.96
808.22	3754.11
808.40	3738.29
808.58	3733.26
808.75	3666.79
808.93	3607.78
809.11	3607.03
809.28	3552.48
809.46	3561.98
809.64	3475.96
809.81	3493.28
809.99	3424.20
810.17	3479.31
810.34	3406.52
810.52	3440.77
810.70	3485.08
810.87	3496.63
811.05	3544.10
811.22	3503.52
811.40	3500.35
811.58	3473.73
811.75	3488.99
811.93	3509.85
812.11	3563.28
812.28	3577.62
812.46	3540.94
812.64	3517.11
812.81	3582.46
812.99	3499.05
813.16	3516.18
813.34	3552.29
813.52	3571.29
813.69	3570.91
813.87	3490.67
814.05	3446.36
814.22	3408.01
814.40	3404.28
814.57	3459.21
814.75	3396.46
814.93	3441.70
815.10	3446.17
815.28	3431.46
815.46	3390.88
815.63	3422.71
815.81	3508.92
815.98	3468.89
816.16	3507.80
816.34	3488.81
816.51	3426.81
816.69	3426.25
816.86	3413.03
817.04	3426.44
817.21	3383.62
817.39	3405.77
817.57	3403.54
817.74	3379.15
817.92	3382.69
818.09	3383.99
818.27	3426.07
818.45	3430.53
818.62	3457.72
818.80	3421.04
818.97	3451.20
819.15	3463.30
819.32	3537.40
819.50	3524.37
819.68	3500.16
819.85	3590.65
820.03	3612.99
820.20	3686.16
820.38	3692.67
820.55	3819.65
820.73	3841.06
820.91	3846.09
821.08	3973.80
821.26	3954.44
821.43	3896.91
821.61	3884.62
821.78	3798.24
821.96	3744.99
822.13	3714.83
822.31	3710.73
822.48	3597.35
822.66	3629.56
822.84	3683.36
823.01	3581.52
823.19	3495.32
823.36	3538.33
823.54	3563.65
823.71	3564.40
823.89	3663.82
824.06	3574.64
824.24	3581.15
824.41	3539.08
824.59	3466.84
824.76	3352.15
824.94	3292.58
825.11	3310.45
825.29	3283.27
825.46	3248.08
825.64	3265.02
825.81	3184.22
825.99	3192.04
826.16	3194.65
826.34	3212.52
826.52	3265.39
826.69	3272.84
826.87	3346.19
827.04	3352.71
827.22	3371.89
827.39	3354.57
827.57	3360.90
827.74	3350.66
827.91	3366.86
828.09	3373.56
828.26	3400.37
828.44	3458.09
828.61	3491.04
828.79	3493.83
828.96	3491.60
829.14	3526.79
829.31	3582.83
829.49	3590.83
829.66	3662.33
829.84	3711.48
830.01	3702.36
830.19	3743.31
830.36	3712.97
830.54	3702.36
830.71	3660.84
830.89	3680.57
831.06	3686.90
831.24	3644.64
831.41	3641.85
831.58	3531.82
831.76	3486.57
831.93	3496.26
832.11	3505.19
832.28	3470.38
832.46	3421.97
832.63	3435.00
832.81	3428.86
832.98	3366.30
833.16	3417.13
833.33	3380.45
833.50	3463.86
833.68	3515.62
833.85	3534.24
834.03	3505.38
834.20	3480.24
834.38	3613.73
834.55	3638.68
834.72	3681.50
834.90	3798.98
835.07	3864.52
835.25	3867.31
835.42	3814.99
835.60	3787.81
835.77	3782.41
835.94	3744.62
836.12	3788.00
836.29	3647.80
836.47	3588.60
836.64	3487.50
836.81	3450.64
836.99	3338.93
837.16	3357.37
837.34	3374.68
837.51	3306.91
837.68	3291.83
837.86	3315.48
838.03	3294.06
838.21	3338.93
838.38	3329.62
838.55	3344.89
838.73	3263.90
838.90	3266.70
839.08	3236.16
839.25	3226.85
839.42	3278.24
839.60	3268.37
839.77	3191.67
839.95	3196.32
840.12	3174.72
840.29	3200.04
840.47	3204.70
840.64	3253.66
840.81	3264.09
840.99	3301.51
841.16	3357.92
841.34	3351.22
841.51	3367.05
841.68	3455.67
841.86	3446.36
842.03	3417.87
842.20	3412.29
842.38	3444.68
842.55	3467.58
842.72	3509.29
842.90	3501.10
843.07	3462.93
843.24	3465.72
843.42	3443.75
843.59	3458.27
843.77	3522.32
843.94	3567.00
844.11	3574.26
844.29	3553.97
844.46	3484.53
844.63	3499.05
844.81	3455.11
844.98	3504.07
845.15	3516.18
845.33	3513.20
845.50	3458.65
845.67	3362.21
845.85	3388.46
846.02	3403.35
846.19	3369.09
846.37	3427.74
846.54	3455.11
846.71	3443.94
846.88	3396.46
847.06	3330.93
847.23	3465.91
847.40	3462.74
847.58	3523.62
847.75	3487.13
847.92	3477.45
848.10	3525.11
848.27	3518.60
848.44	3529.58
848.62	3544.85
848.79	3524.93
848.96	3592.14
849.13	3483.97
849.31	3473.91
849.48	3467.21
849.65	3516.73
849.83	3567.56
850.00	3595.49
850.17	3831.00
850.34	3724.51
850.52	3729.35
850.69	3795.82
850.86	3784.65
851.04	3829.89
851.21	3833.61
851.38	3823.74
851.55	3769.38
851.73	3730.65
851.90	3739.78
852.07	3461.44
852.24	3528.28
852.42	3498.30
852.59	3456.97
852.76	3422.71
852.93	3339.31
853.11	3376.54
853.28	3328.32
853.45	3317.15
853.62	3402.79
853.80	3374.12
853.97	3410.61
854.14	3310.82
854.31	3343.03
854.49	3317.15
854.66	3343.03
854.83	3369.47
855.00	3423.83
855.18	3549.87
855.35	3555.65
855.52	3459.21
855.69	3461.07
855.87	3458.65
856.04	3481.36
856.21	3475.78
856.38	3483.59
856.56	3644.08
856.73	3658.42
856.90	3599.96
857.07	3474.10
857.24	3588.04
857.42	3613.92
857.59	3592.14
857.76	3703.47
857.93	3790.42
858.10	3756.72
858.28	3775.15
858.45	3627.14
858.62	3597.72
858.79	3620.44
858.96	3689.51
859.14	3590.83
859.31	3599.96
859.48	3615.22
859.65	3475.59
859.82	3445.06
860.00	3474.10
860.17	3419.18
860.34	3410.99
860.51	3414.34
860.68	3353.08
860.86	3333.53
861.03	3329.44
861.20	3310.63
861.37	3292.58
861.54	3303.00
861.71	3246.78
861.89	3372.07
862.06	3434.82
862.23	3638.50
862.40	3678.90
862.57	3691.00
862.74	3702.17
862.92	3702.91
863.09	3742.01
863.26	3728.23
863.43	3695.28
863.60	3747.97
863.77	3624.53
863.95	3660.65
864.12	3433.51
864.29	3449.52
864.46	3429.60
864.63	3403.35
864.80	3427.18
864.97	3329.25
865.15	3348.99
865.32	3369.65
865.49	3340.98
865.66	3371.33
865.83	3342.66
866.00	3407.08
866.17	3385.29
866.35	3438.35
866.52	3461.07
866.69	3448.03
866.86	3429.60
867.03	3442.64
867.20	3483.22
867.37	3434.63
867.54	3505.38
867.72	3423.83
867.89	3372.26
868.06	3302.26
868.23	3241.00
868.40	3212.89
868.57	3200.04
868.74	3247.71
868.91	3266.32
869.08	3212.70
869.26	3222.57
869.43	3152.20
869.60	3232.25
869.77	3217.36
869.94	3250.50
870.11	3244.54
870.28	3228.34
870.45	3213.26
870.62	3245.47
870.79	3257.95
870.96	3252.36
871.14	3316.78
871.31	3297.97
871.48	3328.69
871.65	3325.16
871.82	3332.05
871.99	3372.07
872.16	3411.36
872.33	3474.47
872.50	3419.74
872.67	3345.08
872.84	3345.26
873.01	3292.39
873.18	3282.52
873.35	3276.38
873.53	3285.87
873.70	3293.32
873.87	3240.63
874.04	3255.71
874.21	3258.32
874.38	3367.98
874.55	3363.70
874.72	3414.15
874.89	3410.99
875.06	3416.01
875.23	3322.92
875.40	3396.84
875.57	3411.17
875.74	3468.51
875.91	3410.43
876.08	3341.35
876.25	3233.00
876.42	3346.01
876.59	3272.10
876.76	3289.60
876.93	3289.41
877.10	3323.67
877.27	3244.35
877.44	3248.64
877.61	3193.34
877.79	3292.39
877.96	3282.52
878.13	3291.09
878.30	3293.32
878.47	3320.69
878.64	3305.98
878.81	3374.87
878.98	3386.04
879.15	3388.27
879.32	3408.94
879.49	3440.03
879.66	3402.61
879.83	3464.60
880.00	3480.62
880.17	3455.67
880.34	3515.43
880.51	3581.52
880.68	3609.08
880.85	3593.63
881.02	3580.41
881.19	3631.79
881.36	3654.69
881.53	3672.19
881.69	3636.63
881.86	3645.38
882.03	3662.89
882.20	3692.30
882.37	3640.92
882.54	3580.78
882.71	3556.20
882.88	3597.35
883.05	3506.87
883.22	3468.89
883.39	3465.16
883.56	3530.51
883.73	3531.44
883.90	3528.28
884.07	3436.49
884.24	3455.30
884.41	3558.81
884.58	3604.05
884.75	3580.41
884.92	3619.69
885.09	3732.52
885.26	3733.07
885.43	3704.59
885.60	3735.87
885.77	3660.84
885.93	3758.21
886.10	3791.72
886.27	3655.07
886.44	3712.97
886.61	3680.20
886.78	3629.56
886.95	3556.58
887.12	3525.49
887.29	3527.53
887.46	3511.71
887.63	3570.54
887.80	3450.08
887.97	3392.37
888.14	3377.66
888.30	3286.80
888.47	3410.61
888.64	3388.46
888.81	3443.38
888.98	3475.22
889.15	3406.70
889.32	3430.35
889.49	3397.95
889.66	3471.49
889.83	3514.87
890.00	3542.24
890.16	3631.61
890.33	3569.42
890.50	3647.80
890.67	3599.21
890.84	3569.24
891.01	4134.85
891.18	3446.73
891.35	3917.76
891.52	3547.08
891.68	3461.07

