# Wavelength (nm), Intensity (colors)
175.94	1253.36
176.16	1253.36
176.38	1253.36
176.61	1312.75
176.83	1351.66
177.05	2684.89
177.27	2897.13
177.49	3126.13
177.71	3326.27
177.93	3561.98
178.15	3872.15
178.37	3754.67
178.59	3747.41
178.81	3724.51
179.03	3750.20
179.25	3742.57
179.47	3774.96
179.69	3729.54
179.91	3742.76
180.13	3756.72
180.35	3783.53
180.58	3654.32
180.80	3682.62
181.02	3603.31
181.24	3639.43
181.46	3669.59
181.68	3534.98
181.90	3518.41
182.12	3536.10
182.34	3490.86
182.56	3529.77
182.78	3417.13
183.00	3485.46
183.22	3518.60
183.44	3506.87
183.66	3503.89
183.88	3418.06
184.10	3390.32
184.32	3459.02
184.54	3481.73
184.76	3494.58
184.98	3453.99
185.20	3506.12
185.42	3561.79
185.64	3492.53
185.86	3553.97
186.08	3568.68
186.30	3654.88
186.52	3726.19
186.74	3811.46
186.96	3772.92
187.18	3807.55
187.40	3862.47
187.62	3941.97
187.84	3807.17
188.06	3812.01
188.28	3779.99
188.50	3781.85
188.72	3845.34
188.94	3779.62
189.16	3686.53
189.38	3709.43
189.60	3620.25
189.82	3498.68
190.04	3394.23
190.26	3381.75
190.48	3462.93
190.70	3502.96
190.92	3501.47
191.14	3411.92
191.36	3516.36
191.58	3456.04
191.80	3522.69
192.02	3552.11
192.24	3596.98
192.46	3627.14
192.68	3669.03
192.90	3589.34
193.12	3560.49
193.34	3550.62
193.56	3540.01
193.78	3407.26
194.00	3521.76
194.22	3478.38
194.44	3531.63
194.66	3572.22
194.88	3589.16
195.10	3598.09
195.32	3592.32
195.54	3623.42
195.76	3585.81
195.98	3654.13
196.20	3664.00
196.42	3509.66
196.64	3475.22
196.86	3404.28
197.08	3337.63
197.30	3287.92
197.51	3314.36
197.73	3341.54
197.95	3378.40
198.17	3513.38
198.39	3410.80
198.61	3412.47
198.83	3488.06
199.05	3479.69
199.27	3470.93
199.49	3568.86
199.71	3661.58
199.93	3591.95
200.15	3540.94
200.37	3481.36
200.59	3336.51
200.81	3338.93
201.03	3345.26
201.25	3333.16
201.46	3391.81
201.68	3406.70
201.90	3325.16
202.12	3304.86
202.34	3342.29
202.56	3433.14
202.78	3438.54
203.00	3473.54
203.22	3446.55
203.44	3492.16
203.66	3475.59
203.88	3427.37
204.10	3418.43
204.31	3475.22
204.53	3397.39
204.75	3401.30
204.97	3401.68
205.19	3465.72
205.41	3611.13
205.63	3768.45
205.85	3784.65
206.07	3900.08
206.29	3995.96
206.51	3997.45
206.73	4040.83
206.94	4027.61
207.16	3958.35
207.38	3911.43
207.60	3871.59
207.82	3710.92
208.04	3612.24
208.26	3566.63
208.48	3487.69
208.70	3433.89
208.91	3478.75
209.13	3424.02
209.35	3434.07
209.57	3440.59
209.79	3402.79
210.01	3383.43
210.23	3483.22
210.45	3577.43
210.67	3594.93
210.88	3550.06
211.10	3572.03
211.32	3585.43
211.54	3529.95
211.76	3550.81
211.98	3692.30
212.20	3709.80
212.42	3731.03
212.63	3605.36
212.85	3463.49
213.07	3453.25
213.29	3411.73
213.51	3359.97
213.73	3334.84
213.95	3378.22
214.17	3366.67
214.38	3249.94
214.60	3227.78
214.82	3169.88
215.04	3186.64
215.26	3225.55
215.48	3290.90
215.70	3422.16
215.91	3442.45
216.13	3484.15
216.35	3461.25
216.57	3480.62
216.79	3505.56
217.01	3625.46
217.23	3614.48
217.44	3645.38
217.66	3630.49
217.88	3558.07
218.10	3496.07
218.32	3470.00
218.54	3422.16
218.75	3429.23
218.97	3481.36
219.19	3496.26
219.41	3475.03
219.63	3527.91
219.85	3472.61
220.06	3474.66
220.28	3481.36
220.50	3523.81
220.72	3509.47
220.94	3554.90
221.16	3596.42
221.37	3624.35
221.59	3561.05
221.81	3556.95
222.03	3594.93
222.25	3729.54
222.46	3782.41
222.68	3761.19
222.90	3828.77
223.12	3853.90
223.34	3792.65
223.56	3769.01
223.77	3783.34
223.99	3810.15
224.21	3855.77
224.43	3808.10
224.65	3659.72
224.86	3637.38
225.08	3682.81
225.30	3512.08
225.52	3442.08
225.74	3465.54
225.95	3549.69
226.17	3556.76
226.39	3550.81
226.61	3483.41
226.83	3688.21
227.04	3745.55
227.26	3730.10
227.48	3704.22
227.70	3724.51
227.92	3863.03
228.13	3854.46
228.35	3775.34
228.57	3622.67
228.79	3642.59
229.00	3610.94
229.22	3424.02
229.44	3369.47
229.66	3344.71
229.88	3388.46
230.09	3420.67
230.31	3362.76
230.53	3354.57
230.75	3331.30
230.96	3456.23
231.18	3507.43
231.40	3512.27
231.62	3476.71
231.84	3560.49
232.05	3572.77
232.27	3559.56
232.49	3596.61
232.71	3560.11
232.92	3610.57
233.14	3558.44
233.36	3475.22
233.58	3393.67
233.79	3416.94
234.01	3416.38
234.23	3424.39
234.45	3407.08
234.66	3400.19
234.88	3331.49
235.10	3346.38
235.32	3283.08
235.53	3303.93
235.75	3350.48
235.97	3326.65
236.19	3423.27
236.40	3446.92
236.62	3451.20
236.84	3466.47
237.06	3519.34
237.27	3653.95
237.49	3586.92
237.71	3589.53
237.92	3592.70
238.14	3523.81
238.36	3518.78
238.58	3378.40
238.79	3371.89
239.01	3283.82
239.23	3327.02
239.45	3207.68
239.66	3125.76
239.88	3192.97
240.10	3219.78
240.31	3207.49
240.53	3202.46
240.75	3302.26
240.97	3314.54
241.18	3392.18
241.40	3379.52
241.62	3313.43
241.83	3331.86
242.05	3271.54
242.27	3286.99
242.49	3207.12
242.70	3279.17
242.92	3274.52
243.14	3268.37
243.35	3248.08
243.57	3192.04
243.79	3227.41
244.00	3335.21
244.22	3570.17
244.44	3577.06
244.66	3551.36
244.87	3663.63
245.09	3566.63
245.31	3583.39
245.52	3566.82
245.74	3557.32
245.96	3511.34
246.17	3473.17
246.39	3480.99
246.61	3277.87
246.82	3278.05
247.04	3318.45
247.26	3247.15
247.47	3294.06
247.69	3363.14
247.91	3333.53
248.13	3390.51
248.34	3409.50
248.56	3450.64
248.78	3444.31
248.99	3416.01
249.21	3402.98
249.43	3349.17
249.64	3351.22
249.86	3342.10
250.08	3367.61
250.29	3345.64
250.51	3288.29
250.73	3324.97
250.94	3387.15
251.16	3343.03
251.37	3426.62
251.59	3452.88
251.81	3654.32
252.02	3660.65
252.24	3696.58
252.46	3666.61
252.67	3647.99
252.89	3659.72
253.11	3617.83
253.32	3552.67
253.54	3480.62
253.76	3433.33
253.97	3453.25
254.19	3227.41
254.41	3234.12
254.62	3215.12
254.84	3110.12
255.05	3128.92
255.27	3147.17
255.49	3136.56
255.70	3098.58
255.92	3129.30
256.14	3126.88
256.35	3114.96
256.57	3146.42
256.79	3174.17
257.00	3282.52
257.22	3291.46
257.43	3337.44
257.65	3309.52
257.87	3310.63
258.08	3315.48
258.30	3296.30
258.51	3259.99
258.73	3272.10
258.95	3300.39
259.16	3244.17
259.38	3126.32
259.60	3116.64
259.81	3129.67
260.03	3135.44
260.24	3172.12
260.46	3179.56
260.68	3285.87
260.89	3320.69
261.11	3260.92
261.32	3246.59
261.54	3335.02
261.76	3393.48
261.97	3420.29
262.19	3376.54
262.40	3385.11
262.62	3345.45
262.84	3396.09
263.05	3388.27
263.27	3392.37
263.48	3410.61
263.70	3381.75
263.91	3350.29
264.13	3270.42
264.35	3273.58
264.56	3258.69
264.78	3239.14
264.99	3248.08
265.21	3288.48
265.43	3263.53
265.64	3203.02
265.86	3193.34
266.07	3254.97
266.29	3311.01
266.50	3323.67
266.72	3351.59
266.94	3416.76
267.15	3449.71
267.37	3448.41
267.58	3403.17
267.80	3324.97
268.01	3396.28
268.23	3372.63
268.44	3313.80
268.66	3219.59
268.88	3263.90
269.09	3267.63
269.31	3274.14
269.52	3236.54
269.74	3318.08
269.95	3356.81
270.17	3409.31
270.38	3417.87
270.60	3444.12
270.82	3439.10
271.03	3511.89
271.25	3527.35
271.46	3750.02
271.68	3723.58
271.89	3834.36
272.11	3826.72
272.32	3850.18
272.54	3822.63
272.75	3798.61
272.97	3792.84
273.18	3828.03
273.40	3730.84
273.62	3710.17
273.83	3434.07
274.05	3460.14
274.26	3402.61
274.48	3288.48
274.69	3321.99
274.91	3317.71
275.12	3325.72
275.34	3302.63
275.55	3342.10
275.77	3434.26
275.98	3376.54
276.20	3380.45
276.41	3410.80
276.63	3468.14
276.84	3468.89
277.06	3313.05
277.27	3309.70
277.49	3304.30
277.70	3331.67
277.92	3298.72
278.13	3287.18
278.35	3315.10
278.56	3365.93
278.78	3289.04
278.99	3337.63
279.21	3429.23
279.42	3507.05
279.64	3476.71
279.85	3484.53
280.07	3547.83
280.28	3594.37
280.50	3596.61
280.71	3677.78
280.93	3638.12
281.14	3649.29
281.36	3506.68
281.57	3508.36
281.79	3422.90
282.00	3467.21
282.22	3408.01
282.43	3368.54
282.65	3376.17
282.86	3282.34
283.08	3192.22
283.29	3243.80
283.51	3253.11
283.72	3285.69
283.94	3220.15
284.15	3279.36
284.36	3270.05
284.58	3302.26
284.79	3306.35
285.01	3258.13
285.22	3386.04
285.44	3383.62
285.65	3355.69
285.87	3335.40
286.08	3293.32
286.30	3302.63
286.51	3267.07
286.73	3302.07
286.94	3389.02
287.15	3423.46
287.37	3404.28
287.58	3265.58
287.80	3227.78
288.01	3198.18
288.23	3186.08
288.44	3176.96
288.66	3170.07
288.87	3172.86
289.08	3164.11
289.30	3086.85
289.51	3032.48
289.73	2983.15
289.94	3060.41
290.16	3067.30
290.37	3052.59
290.58	3222.20
290.80	3231.51
291.01	3253.85
291.23	3296.11
291.44	3268.56
291.66	3259.25
291.87	3274.89
292.08	3402.23
292.30	3356.25
292.51	3468.33
292.73	3529.58
292.94	3410.99
293.16	3455.85
293.37	3433.33
293.58	3496.63
293.80	3520.83
294.01	3621.74
294.23	3751.69
294.44	3677.22
294.65	3763.98
294.87	3688.39
295.08	3629.00
295.30	3591.21
295.51	3612.62
295.72	3652.09
295.94	3662.14
296.15	3657.86
296.37	3553.41
296.58	3474.29
296.79	3469.45
297.01	3388.09
297.22	3405.03
297.44	3448.97
297.65	3429.04
297.86	3457.53
298.08	3433.70
298.29	3336.70
298.51	3299.65
298.72	3266.70
298.93	3211.77
299.15	3333.16
299.36	3321.43
299.57	3350.29
299.79	3390.51
300.00	3392.55
300.22	3315.66
300.43	3276.94
300.64	3282.15
300.86	3409.68
301.07	3491.60
301.28	3505.94
301.50	3355.32
301.71	3432.58
301.93	3409.12
302.14	3345.64
302.35	3331.67
302.57	3330.74
302.78	3374.68
302.99	3381.20
303.21	3256.64
303.42	3240.07
303.63	3249.94
303.85	3324.41
304.06	3263.53
304.28	3324.41
304.49	3362.21
304.70	3431.65
304.92	3413.03
305.13	3489.74
305.34	3431.09
305.56	3411.92
305.77	3407.63
305.98	3398.32
306.20	3338.75
306.41	3337.07
306.62	3262.79
306.84	3342.10
307.05	3270.98
307.26	3356.99
307.48	3287.73
307.69	3392.18
307.90	3382.31
308.12	3315.29
308.33	3286.06
308.54	3291.27
308.76	3337.26
308.97	3301.14
309.18	3178.82
309.40	3146.05
309.61	3074.75
309.82	3022.80
310.04	2986.12
310.25	3051.29
310.46	3085.36
310.67	3035.83
310.89	3092.62
311.10	3104.91
311.31	3165.41
311.53	3226.85
311.74	3271.16
311.95	3305.05
312.17	3320.87
312.38	3287.36
312.59	3267.81
312.81	3285.69
313.02	3394.04
313.23	3376.54
313.44	3303.00
313.66	3254.78
313.87	3215.12
314.08	3208.05
314.30	3220.52
314.51	3203.95
314.72	3223.32
314.93	3309.52
315.15	3252.55
315.36	3245.84
315.57	3187.76
315.79	3191.67
316.00	3157.22
316.21	3115.89
316.42	3186.64
316.64	3188.31
316.85	3178.08
317.06	3212.89
317.28	3078.47
317.49	3106.95
317.70	3033.79
317.91	3025.78
318.13	3023.17
318.34	3069.91
318.55	3113.47
318.76	3085.36
318.98	3033.04
319.19	3119.43
319.40	3141.21
319.62	3163.55
319.83	3180.87
320.04	3192.60
320.25	3239.89
320.47	3298.72
320.68	3284.20
320.89	3245.10
321.10	3200.23
321.32	3200.04
321.53	3152.01
321.74	3080.14
321.95	3122.59
322.17	3129.67
322.38	3139.91
322.59	3095.23
322.80	3053.71
323.02	3186.64
323.23	3172.86
323.44	3264.65
323.65	3251.24
323.86	3301.14
324.08	3272.28
324.29	3232.07
324.50	3231.32
324.71	3311.38
324.93	3379.71
325.14	3396.09
325.35	3306.91
325.56	3363.51
325.78	3264.65
325.99	3277.31
326.20	3241.19
326.41	3330.00
326.62	3380.45
326.84	3369.65
327.05	3293.69
327.26	3208.42
327.47	3171.19
327.69	3131.53
327.90	3186.64
328.11	3284.76
328.32	3261.86
328.53	3260.18
328.75	3273.21
328.96	3246.40
329.17	3210.66
329.38	3174.54
329.59	3231.51
329.81	3303.93
330.02	3312.87
330.23	3336.33
330.44	3302.44
330.65	3332.05
330.87	3324.78
331.08	3224.43
331.29	3206.93
331.50	3246.03
331.71	3321.25
331.92	3288.48
332.14	3243.98
332.35	3316.59
332.56	3192.60
332.77	3156.48
332.98	3282.89
333.20	3257.20
333.41	3289.97
333.62	3261.30
333.83	3277.87
334.04	3257.76
334.25	3292.02
334.47	3250.31
334.68	3177.52
334.89	3205.44
335.10	3266.88
335.31	3099.14
335.52	3085.17
335.74	3135.81
335.95	3210.10
336.16	3177.14
336.37	3158.34
336.58	3126.13
336.79	3141.77
337.01	3137.12
337.22	3171.19
337.43	3068.60
337.64	3093.92
337.85	3111.24
338.06	3069.16
338.28	3033.97
338.49	3087.78
338.70	3100.44
338.91	3121.48
339.12	3133.39
339.33	3102.86
339.54	3138.79
339.76	3188.87
339.97	3200.98
340.18	3200.98
340.39	3199.30
340.60	3364.44
340.81	3349.92
341.02	3327.02
341.23	3327.02
341.45	3360.53
341.66	3380.08
341.87	3299.65
342.08	3251.24
342.29	3230.21
342.50	3270.42
342.71	3343.59
342.92	3193.16
343.14	3162.99
343.35	3189.06
343.56	3126.88
343.77	3111.80
343.98	3120.36
344.19	3206.19
344.40	3213.64
344.61	3255.90
344.82	3227.60
345.04	3141.21
345.25	3203.58
345.46	3242.87
345.67	3215.31
345.88	3232.81
346.09	3227.04
346.30	3290.15
346.51	3203.58
346.72	3274.33
346.94	3249.75
347.15	3273.40
347.36	3283.82
347.57	3284.94
347.78	3207.31
347.99	3192.78
348.20	3256.46
348.41	3295.93
348.62	3294.81
348.83	3355.88
349.04	3393.30
349.25	3376.91
349.47	3360.72
349.68	3367.79
349.89	3333.91
350.10	3423.09
350.31	3403.91
350.52	3394.23
350.73	3394.60
350.94	3362.95
351.15	3427.74
351.36	3306.91
351.57	3308.03
351.78	3278.24
351.99	3308.21
352.21	3264.65
352.42	3285.69
352.63	3330.00
352.84	3277.49
353.05	3305.05
353.26	3239.51
353.47	3097.83
353.68	3084.24
353.89	3099.32
354.10	3142.33
354.31	3094.29
354.52	3079.77
354.73	3083.87
354.94	3080.33
355.15	3132.09
355.36	3053.89
355.57	3163.55
355.78	3268.37
355.99	3323.67
356.20	3303.93
356.42	3349.92
356.63	3358.48
356.84	3356.25
357.05	3405.96
357.26	3375.05
357.47	3374.12
357.68	3396.46
357.89	3336.14
358.10	3222.76
358.31	3191.11
358.52	3217.36
358.73	3162.99
358.94	3186.45
359.15	3301.33
359.36	3194.46
359.57	3325.34
359.78	3339.68
359.99	3330.56
360.20	3402.42
360.41	3404.47
360.62	3392.93
360.83	3399.81
361.04	3426.62
361.25	3403.72
361.46	3351.41
361.67	3377.29
361.88	3293.88
362.09	3232.07
362.30	3207.12
362.51	3208.05
362.72	3275.07
362.93	3279.54
363.14	3245.47
363.35	3279.36
363.56	3373.38
363.77	3312.31
363.98	3264.46
364.19	3358.85
364.40	3436.68
364.61	3539.63
364.82	3444.50
365.03	3572.22
365.24	3666.79
365.45	3786.14
365.66	3676.85
365.87	3572.77
366.08	3648.55
366.29	3750.58
366.50	3674.99
366.71	3606.85
366.92	3583.76
367.13	3677.78
367.34	3499.79
367.55	3448.78
367.76	3393.30
367.97	3414.52
368.18	3658.04
368.39	3579.85
368.60	3471.31
368.81	3438.91
369.01	3466.65
369.22	3453.25
369.43	3445.61
369.64	3427.74
369.85	3428.86
370.06	3400.00
370.27	3399.26
370.48	3182.54
370.69	3176.03
370.90	3235.79
371.11	3335.40
371.32	3307.84
371.53	3227.60
371.74	3210.28
371.95	3324.23
372.16	3280.66
372.37	3237.28
372.58	3404.84
372.79	3409.50
372.99	3377.66
373.20	3401.12
373.41	3386.97
373.62	3520.46
373.83	3526.79
374.04	3443.19
374.25	3472.98
374.46	3499.23
374.67	3481.55
374.88	3301.33
375.09	3307.47
375.30	3420.11
375.51	3347.68
375.72	3247.15
375.92	3148.10
376.13	3164.48
376.34	3329.44
376.55	3268.19
376.76	3272.65
376.97	3442.26
377.18	3479.69
377.39	3486.95
377.60	3467.77
377.81	3502.77
378.02	3658.04
378.22	3610.38
378.43	3629.37
378.64	3508.73
378.85	3478.75
379.06	3481.36
379.27	3384.73
379.48	3521.39
379.69	3510.59
379.90	3567.56
380.11	3526.97
380.31	3512.64
380.52	3557.88
380.73	3588.79
380.94	3597.35
381.15	3616.34
381.36	3627.51
381.57	3637.19
381.78	3489.55
381.99	3480.43
382.19	3397.58
382.40	3392.55
382.61	3322.74
382.82	3356.99
383.03	3383.80
383.24	3363.32
383.45	3350.85
383.65	3355.88
383.86	3291.46
384.07	3296.67
384.28	3297.97
384.49	3381.38
384.70	3448.59
384.91	3385.29
385.12	3326.27
385.32	3306.91
385.53	3289.22
385.74	3275.63
385.95	3291.27
386.16	3341.17
386.37	3348.99
386.58	3405.40
386.78	3311.19
386.99	3349.36
387.20	3377.85
387.41	3432.58
387.62	3417.13
387.83	3470.38
388.03	3495.51
388.24	3497.74
388.45	3517.67
388.66	3508.54
388.87	3450.27
389.08	3478.57
389.28	3423.09
389.49	3494.77
389.70	3491.04
389.91	3533.30
390.12	3621.18
390.33	3661.95
390.53	3670.52
390.74	3731.21
390.95	3845.34
391.16	3883.88
391.37	3937.13
391.58	4004.34
391.78	3963.56
391.99	3986.28
392.20	3935.64
392.41	3887.42
392.62	3891.70
392.82	3958.17
393.03	3940.29
393.24	3882.95
393.45	3941.04
393.66	3951.28
393.87	4061.68
394.07	4181.21
394.28	4217.33
394.49	4358.08
394.70	4399.41
394.91	4413.75
395.11	4462.52
395.32	4501.06
395.53	4669.00
395.74	4666.58
395.94	4715.54
396.15	4660.99
396.36	4621.52
396.57	4628.04
396.78	4613.89
396.98	4685.19
397.19	4779.03
397.40	4777.91
397.61	4817.38
397.82	4775.68
398.02	4847.54
398.23	4856.85
398.44	4919.59
398.65	5047.87
398.85	5159.95
399.06	5290.83
399.27	5405.15
399.48	5444.80
399.69	5482.60
399.89	5531.56
400.10	5580.90
400.31	5628.19
400.52	5672.87
400.72	5622.98
400.93	5616.65
401.14	5694.47
401.35	5626.51
401.55	5556.51
401.76	5566.01
401.97	5586.86
402.18	5697.82
402.38	5653.14
402.59	5721.47
402.80	5779.55
403.01	5819.02
403.21	5884.00
403.42	5984.35
403.63	6056.22
403.84	6024.01
404.04	5972.81
404.25	6052.12
404.46	5927.94
404.67	5933.90
404.87	5829.08
405.08	5781.04
405.29	5873.76
405.50	5796.50
405.70	5559.68
405.91	5564.33
406.12	5535.10
406.32	5490.23
406.53	5365.49
406.74	5322.67
406.95	5304.05
407.15	5294.56
407.36	5225.30
407.57	5145.99
407.77	5059.04
407.98	5028.32
408.19	4859.27
408.40	4859.46
408.60	4995.74
408.81	4948.26
409.02	4914.75
409.22	4850.33
409.43	4800.62
409.64	4752.59
409.85	4626.18
410.05	4615.19
410.26	4704.00
410.47	4694.69
410.67	4608.12
410.88	4479.65
411.09	4476.49
411.29	4446.88
411.50	4459.73
411.71	4441.86
411.92	4444.65
412.12	4452.66
412.33	4483.19
412.54	4386.38
412.74	4400.90
412.95	4384.89
413.16	4434.60
413.36	4389.17
413.57	4463.27
413.78	4456.57
413.98	4445.95
414.19	4457.12
414.40	4418.21
414.60	4281.19
414.81	4219.93
415.02	4159.98
415.22	4203.18
415.43	4062.24
415.64	4060.00
415.84	4033.01
416.05	3948.86
416.26	3856.51
416.46	3794.89
416.67	3773.10
416.88	3814.62
417.08	3908.83
417.29	3868.80
417.50	3779.99
417.70	3809.78
417.91	3776.08
418.12	3701.61
418.32	3736.43
418.53	3775.34
418.74	3760.82
418.94	3710.73
419.15	3694.54
419.36	3592.70
419.56	3575.38
419.77	3648.36
419.97	3740.15
420.18	3809.22
420.39	3813.88
420.59	3829.89
420.80	3844.41
421.01	3832.68
421.21	3958.91
421.42	4003.59
421.63	4027.98
421.83	4117.53
422.04	4024.63
422.24	3909.01
422.45	3915.72
422.66	3899.15
422.86	3847.02
423.07	3790.79
423.28	3965.98
423.48	3845.53
423.69	3801.96
423.89	3830.63
424.10	3733.82
424.31	3821.70
424.51	3875.32
424.72	3762.12
424.92	3763.79
425.13	3768.63
425.34	3751.32
425.54	3580.78
425.75	3586.92
425.95	3561.79
426.16	3448.41
426.37	3433.14
426.57	3393.86
426.78	3344.52
426.98	3337.07
427.19	3261.67
427.40	3213.26
427.60	3266.14
427.81	3292.02
428.01	3326.09
428.22	3312.87
428.43	3346.19
428.63	3354.01
428.84	3299.09
429.04	3393.48
429.25	3455.67
429.45	3483.97
429.66	3492.90
429.87	3480.80
430.07	3433.14
430.28	3358.30
430.48	3353.27
430.69	3342.10
430.89	3360.90
431.10	3378.78
431.31	3200.23
431.51	3231.88
431.72	3268.56
431.92	3236.91
432.13	3210.84
432.33	3275.26
432.54	3394.42
432.74	3348.43
432.95	3407.08
433.16	3365.56
433.36	3345.26
433.57	3521.02
433.77	3438.35
433.98	3554.72
434.18	3642.41
434.39	3659.53
434.59	3675.92
434.80	3609.27
435.01	3701.42
435.21	3632.91
435.42	3673.13
435.62	3726.37
435.83	3616.34
436.03	3602.38
436.24	3478.94
436.44	3414.52
436.65	3425.51
436.85	3364.25
437.06	3373.56
437.26	3303.93
437.47	3343.40
437.67	3445.99
437.88	3401.49
438.08	3365.19
438.29	3381.75
438.50	3430.35
438.70	3400.75
438.91	3392.37
439.11	3359.79
439.32	3308.96
439.52	3380.27
439.73	3345.45
439.93	3238.96
440.14	3334.65
440.34	3384.36
440.55	3367.98
440.75	3293.32
440.96	3300.21
441.16	3264.65
441.37	3322.74
441.57	3338.19
441.78	3290.90
441.98	3324.60
442.19	3299.46
442.39	3178.82
442.60	3939.92
442.80	3913.48
443.01	4050.88
443.21	4058.89
443.42	4072.67
443.62	4044.18
443.83	4860.02
444.03	4844.56
444.23	4863.37
444.44	4893.53
444.64	4946.22
444.85	4185.68
445.05	4256.98
445.26	4229.06
445.46	4244.32
445.67	4235.20
445.87	4205.41
446.08	3435.19
446.28	3430.91
446.49	3431.09
446.69	3408.94
446.90	3410.05
447.10	3366.12
447.31	3322.74
447.51	3189.25
447.71	3221.83
447.92	3255.90
448.12	3311.57
448.33	3324.23
448.53	3336.51
448.74	3262.97
448.94	3299.28
449.15	3296.11
449.35	3348.06
449.56	3351.04
449.76	3388.64
449.96	3432.95
450.17	3444.68
450.37	3391.06
450.58	3376.73
450.78	3352.90
450.99	3364.44
451.19	3380.45
451.39	3427.93
451.60	3351.22
451.80	3369.09
452.01	3342.29
452.21	3283.64
452.42	3240.07
452.62	3293.32
452.82	3240.26
453.03	3243.24
453.23	3269.68
453.44	3232.81
453.64	3163.93
453.85	3202.65
454.05	3185.89
454.25	3241.75
454.46	3241.75
454.66	3311.57
454.87	3244.17
455.07	3262.23
455.27	3263.90
455.48	3264.09
455.68	3237.84
455.89	3190.18
456.09	3146.24
456.29	3169.51
456.50	3119.99
456.70	3053.89
456.91	2992.45
457.11	3101.00
457.31	3155.18
457.52	3296.11
457.72	3295.00
457.93	3404.65
458.13	3446.92
458.33	3561.42
458.54	3548.57
458.74	3543.17
458.95	3606.10
459.15	3596.42
459.35	3564.77
459.56	3521.20
459.76	3393.48
459.96	3411.92
460.17	3351.04
460.37	3386.22
460.58	3367.61
460.78	3406.33
460.98	3518.41
461.19	3576.68
461.39	3596.05
461.59	3585.99
461.80	3614.29
462.00	3663.26
462.21	3651.16
462.41	3627.70
462.61	3591.39
462.82	3498.49
463.02	3471.49
463.22	3437.42
463.43	3415.08
463.63	3390.13
463.83	3349.17
464.04	3291.64
464.24	3290.71
464.44	3324.04
464.65	3373.94
464.85	3801.03
465.05	3836.59
465.26	3828.96
465.46	3764.17
465.66	3722.83
465.87	3852.23
466.07	3884.25
466.27	4027.24
466.48	4037.48
466.68	4006.20
466.88	3972.31
467.09	3553.41
467.29	3606.10
467.49	3684.11
467.70	3691.18
467.90	3695.47
468.10	3564.21
468.31	3634.59
468.51	3580.78
468.71	3547.45
468.92	3509.66
469.12	3568.12
469.32	3577.80
469.53	3533.49
469.73	3426.81
469.93	3421.04
470.14	3436.86
470.34	3407.45
470.54	3298.91
470.74	3245.84
470.95	3249.01
471.15	3261.48
471.35	3182.54
471.56	3168.02
471.76	3147.54
471.96	3138.98
472.17	3192.60
472.37	3381.38
472.57	3461.07
472.77	3531.44
472.98	3518.04
473.18	3463.12
473.38	3589.90
473.59	3608.71
473.79	3621.37
473.99	3664.56
474.19	3708.87
474.40	3744.06
474.60	3561.23
474.80	3625.84
475.01	3640.36
475.21	3622.48
475.41	3656.93
475.61	3622.30
475.82	3651.34
476.02	3706.64
476.22	3696.21
476.42	3736.98
476.63	3709.62
476.83	3650.41
477.03	3569.42
477.24	3536.84
477.44	3602.19
477.64	3607.40
477.84	3518.78
478.05	3490.67
478.25	3565.14
478.45	3544.66
478.65	3482.85
478.86	3469.07
479.06	3550.81
479.26	3537.96
479.46	3529.58
479.67	3478.94
479.87	3509.66
480.07	3518.97
480.27	3591.21
480.48	3460.88
480.68	3510.96
480.88	3569.98
481.08	3538.33
481.28	3508.17
481.49	3535.54
481.69	3565.70
481.89	3654.88
482.09	3619.51
482.30	3591.58
482.50	3576.50
482.70	3560.86
482.90	3513.94
483.11	3532.93
483.31	3597.35
483.51	3614.29
483.71	3693.60
483.91	3693.42
484.12	3617.09
484.32	3732.89
484.52	3871.59
484.72	3857.63
484.92	4198.15
485.13	4177.11
485.33	4154.03
485.53	4149.93
485.73	4175.62
485.93	4076.02
486.14	4027.24
486.34	4175.99
486.54	4083.09
486.74	4047.53
486.94	4079.74
487.15	3763.79
487.35	3793.02
487.55	3799.73
487.75	3739.59
487.95	3815.55
488.16	3835.85
488.36	3858.37
488.56	3738.85
488.76	3747.78
488.96	3779.06
489.17	3800.10
489.37	3830.45
489.57	3880.34
489.77	3879.60
489.97	3860.79
490.17	3800.29
490.38	3831.75
490.58	3845.53
490.78	3871.22
490.98	3866.75
491.18	3797.49
491.38	3767.89
491.59	3772.73
491.79	3732.52
491.99	3760.44
492.19	3877.36
492.39	3848.32
492.59	3855.77
492.80	3840.69
493.00	3853.90
493.20	3913.67
493.40	3949.41
493.60	3959.10
493.80	3967.29
494.00	4158.31
494.21	4160.91
494.41	4137.64
494.61	4196.66
494.81	4171.90
495.01	4227.19
495.21	4220.68
495.41	4229.06
495.62	4201.87
495.82	4158.49
496.02	4178.60
496.22	4045.86
496.42	4004.71
496.62	4061.68
496.82	4008.81
497.02	4067.64
497.23	4022.58
497.43	4086.07
497.63	4088.30
497.83	4074.71
498.03	4085.88
498.23	4111.76
498.43	4080.11
498.63	4162.96
498.84	4121.82
499.04	4142.30
499.24	4162.03
499.44	4356.40
499.64	4373.53
499.84	4341.88
500.04	4449.49
500.24	4503.48
500.44	4517.45
500.65	4588.75
500.85	4598.81
501.05	4572.74
501.25	4667.69
501.45	4648.70
501.65	4519.49
501.85	4557.29
502.05	4642.93
502.25	4570.51
502.45	4681.66
502.65	4643.12
502.86	4631.76
503.06	4593.97
503.26	4723.36
503.46	4676.82
503.66	4687.99
503.86	4711.82
504.06	4728.95
504.26	4715.17
504.46	4734.53
504.66	4631.95
504.86	4644.61
505.06	4755.38
505.26	4936.16
505.47	4848.47
505.67	4938.77
505.87	4935.05
506.07	4919.41
506.27	4882.36
506.47	4833.76
506.67	4839.72
506.87	4834.14
507.07	4843.82
507.27	4712.75
507.47	4570.69
507.67	4636.23
507.87	4650.38
508.07	4668.25
508.27	4723.55
508.47	4734.35
508.67	4763.76
508.87	4844.00
509.08	4856.66
509.28	4950.69
509.48	5049.17
509.68	5083.99
509.88	5080.45
510.08	4990.16
510.28	5032.79
510.48	5052.15
510.68	5049.17
510.88	5061.83
511.08	5034.47
511.28	5038.56
511.48	5046.75
511.68	4977.68
511.88	4973.59
512.08	4974.70
512.28	5023.48
512.48	5082.69
512.68	5092.55
512.88	5112.66
513.08	5109.31
513.28	5143.75
513.48	5248.01
513.68	5237.77
513.88	5311.13
514.08	5323.79
514.28	5353.02
514.48	5460.82
514.68	5485.02
514.88	5500.29
515.08	5496.56
515.28	5558.19
515.48	5578.48
515.68	5551.48
515.88	5624.09
516.08	5608.08
516.28	5637.13
516.48	5606.59
516.68	5561.54
516.88	5531.19
517.08	5565.82
517.28	5663.01
517.48	5744.92
517.68	5762.61
517.88	5754.61
518.08	5721.65
518.28	5776.02
518.48	5841.18
518.68	5961.08
518.88	5924.40
519.08	5982.30
519.28	6040.02
519.48	5988.63
519.68	5955.31
519.88	5959.59
520.08	6008.93
520.28	6018.42
520.48	5999.25
520.68	5957.73
520.88	5988.45
521.08	6029.96
521.28	5989.56
521.47	5916.40
521.67	5931.10
521.87	6008.93
522.07	6116.35
522.27	6121.75
522.47	6092.15
522.67	6091.78
522.87	6157.87
523.07	6118.40
523.27	6114.68
523.47	6193.43
523.67	6215.40
523.87	6242.02
524.07	6245.56
524.27	6173.14
524.47	6214.84
524.67	6311.84
524.87	6390.78
525.06	6416.10
525.26	6387.43
525.46	6579.01
525.66	6541.21
525.86	6582.54
526.06	6570.44
526.26	6546.05
526.46	6561.69
526.66	6589.99
526.86	6601.35
527.06	6590.92
527.26	6628.72
527.46	6679.92
527.65	6559.83
527.85	6619.04
528.05	6633.00
528.25	6775.05
528.45	6801.86
528.65	6883.78
528.85	6885.08
529.05	6955.65
529.25	7034.96
529.45	7012.24
529.65	7084.85
529.84	7124.88
530.04	7165.28
530.24	7202.89
530.44	7125.44
530.64	7179.99
530.84	7721.77
531.04	7793.27
531.24	7942.21
531.44	7943.33
531.63	7951.70
531.83	7969.02
532.03	8134.72
532.23	8133.41
532.43	8202.11
532.63	8266.91
532.83	8265.60
533.03	7763.66
533.22	7761.80
533.42	7605.41
533.62	7646.56
533.82	7742.44
534.02	7706.13
534.22	7575.25
534.42	7611.00
534.62	7619.19
534.81	7617.14
535.01	7671.88
535.21	7724.01
535.41	7754.73
535.61	7783.03
535.81	7768.32
536.01	7793.82
536.20	7887.29
536.40	7915.77
536.60	8086.31
536.80	8097.85
537.00	8124.11
537.20	8094.50
537.39	8176.24
537.59	8301.16
537.79	8391.46
537.99	8408.03
538.19	8505.40
538.39	8616.55
538.59	8650.62
538.78	8581.36
538.98	8617.11
539.18	8650.06
539.38	8712.25
539.58	8586.95
539.78	8530.72
539.97	8535.56
540.17	8642.06
540.37	8574.10
540.57	8540.22
540.77	8550.83
540.96	8511.17
541.16	8641.50
541.36	8770.33
541.56	8804.22
541.76	8985.93
541.96	9026.89
542.15	9039.36
542.35	9096.52
542.55	9119.23
542.75	9061.14
542.95	9226.84
543.14	9278.60
543.34	9128.54
543.54	9051.84
543.74	9035.64
543.94	8975.32
544.13	8919.09
544.33	8917.23
544.53	8869.19
544.73	8870.68
544.93	8900.10
545.12	8895.45
545.32	8995.80
545.52	9104.52
545.72	9119.05
545.91	9193.33
546.11	9273.39
546.31	9356.42
546.51	9400.55
546.71	9402.60
546.90	9395.89
547.10	9539.07
547.30	9559.55
547.50	9460.50
547.69	9486.38
547.89	9554.71
548.09	9563.83
548.29	9522.68
548.49	9587.84
548.68	9588.03
548.88	9592.50
549.08	9702.72
549.28	9612.23
549.47	9591.20
549.67	9627.50
549.87	9648.54
550.07	9620.61
550.26	9647.98
550.46	9766.20
550.66	9737.35
550.86	9764.34
551.05	9829.69
551.25	9766.39
551.45	9811.07
551.65	9773.09
551.84	9821.69
552.04	9815.73
552.24	9936.37
552.44	9962.62
552.63	9851.10
552.83	9966.91
553.03	10027.23
553.22	10013.45
553.42	10048.82
553.62	10024.25
553.82	10143.96
554.01	10122.92
554.21	10089.78
554.41	10000.05
554.61	9994.46
554.80	10031.32
555.00	9893.74
555.20	9844.21
555.39	9877.73
555.59	9963.55
555.79	10075.63
555.99	9962.81
556.18	10036.72
556.38	10087.55
556.58	10120.69
556.77	10181.57
556.97	10245.06
557.17	10341.87
557.37	10339.26
557.56	10465.87
557.76	10431.79
557.96	10481.88
558.15	10497.52
558.35	10506.27
558.55	10592.47
558.74	10688.16
558.94	10763.57
559.14	10745.13
559.33	10722.42
559.53	10787.77
559.73	10637.71
559.93	10633.24
560.12	10529.17
560.32	10530.84
560.52	10474.06
560.71	10419.13
560.91	10339.45
561.11	10264.42
561.30	10284.15
561.50	10248.41
561.70	10340.57
561.89	10358.07
562.09	10671.22
562.29	10705.85
562.48	10734.89
562.68	10840.64
562.88	10778.65
563.07	10808.06
563.27	10759.47
563.47	10712.74
563.66	10729.49
563.86	10620.02
564.06	10584.46
564.25	10283.22
564.45	10343.92
564.64	10331.44
564.84	10253.43
565.04	10360.67
565.23	10375.38
565.43	10372.59
565.63	10371.47
565.82	10384.69
566.02	10434.77
566.22	10503.85
566.41	10429.93
566.61	10297.00
566.81	10328.46
567.00	10339.82
567.20	10295.14
567.39	10252.69
567.59	10232.96
567.79	10261.07
567.98	10235.75
568.18	10140.61
568.38	10083.27
568.57	10087.55
568.77	10103.37
568.96	10082.15
569.16	9979.01
569.36	10018.29
569.55	9947.36
569.75	9994.83
569.94	9944.94
570.14	10045.10
570.34	10057.02
570.53	10045.29
570.73	10084.01
570.92	10066.88
571.12	10078.43
571.32	10146.01
571.51	10089.60
571.71	10105.79
571.90	10104.31
572.10	10091.09
572.30	9963.37
572.49	9910.87
572.69	9884.99
572.88	9876.98
573.08	9836.02
573.28	9771.42
573.47	9726.92
573.67	9608.88
573.86	9648.17
574.06	9544.28
574.26	9500.15
574.45	9433.69
574.65	9409.11
574.84	9394.41
575.04	9321.80
575.23	9290.89
575.43	9266.50
575.63	9224.61
575.82	9315.84
576.02	9278.23
576.21	9306.53
576.41	9268.92
576.60	9314.91
576.80	9310.25
576.99	9347.12
577.19	9307.65
577.39	9273.02
577.58	9218.09
577.78	9182.35
577.97	9058.91
578.17	8941.62
578.36	8837.54
578.56	8834.38
578.75	8741.29
578.95	8713.36
579.15	8618.60
579.34	8704.61
579.54	8643.92
579.73	8719.88
579.93	8761.96
580.12	8789.32
580.32	8813.15
580.51	8855.23
580.71	8821.35
580.90	8829.54
581.10	8799.19
581.29	8798.82
581.49	8820.42
581.68	9010.88
581.88	8873.66
582.07	8793.23
582.27	8730.49
582.47	8688.60
582.66	8619.16
582.86	8619.53
583.05	8594.77
583.25	8507.63
583.44	8475.43
583.64	8335.98
583.83	8118.15
584.03	8132.67
584.22	8077.00
584.42	8053.73
584.61	8006.07
584.81	7995.27
585.00	7944.82
585.20	7940.72
585.39	8022.45
585.59	7984.66
585.78	7884.87
585.98	7939.23
586.17	7935.13
586.37	8008.30
586.56	8008.86
586.76	8046.84
586.95	7959.90
587.15	7920.98
587.34	7823.05
587.54	7738.16
587.73	7669.08
587.92	7735.18
588.12	7667.60
588.31	7581.02
588.51	7469.87
588.70	7416.44
588.90	7311.25
589.09	7339.73
589.29	7330.98
589.48	7333.78
589.68	7276.06
589.87	7297.10
590.07	7302.13
590.26	7293.19
590.46	7291.51
590.65	7280.34
590.84	7272.71
591.04	7280.34
591.23	7192.28
591.43	7154.49
591.62	7116.69
591.82	7200.84
592.01	7183.16
592.21	7177.01
592.40	7071.45
592.59	6994.19
592.79	6898.68
592.98	6980.41
593.18	6942.61
593.37	6914.50
593.57	6893.84
593.76	6837.98
593.96	6710.64
594.15	6646.59
594.34	6533.02
594.54	6508.63
594.73	6491.87
594.93	6532.65
595.12	6345.35
595.32	6404.00
595.51	6417.40
595.70	6458.92
595.90	6440.49
596.09	6471.58
596.29	6421.69
596.48	6387.61
596.67	6381.10
596.87	6398.41
597.06	6497.65
597.26	6492.25
597.45	6320.03
597.65	6306.25
597.84	6177.79
598.03	6194.73
598.23	6101.09
598.42	6197.15
598.62	6133.48
598.81	6121.75
599.00	6061.62
599.20	5938.55
599.39	5939.11
599.58	5944.88
599.78	5964.80
599.97	5978.21
600.17	5948.60
600.36	5930.92
600.55	5786.63
600.75	5777.69
600.94	5760.94
601.14	5774.53
601.33	5707.69
601.52	5666.92
601.72	5631.36
601.91	5576.43
602.10	5478.87
602.30	5464.54
602.49	5504.01
602.69	5534.91
602.88	5532.68
603.07	5511.64
603.27	5511.64
603.46	5524.86
603.65	5500.10
603.85	5547.02
604.04	5516.30
604.23	5536.03
604.43	5484.09
604.62	5431.59
604.82	5389.51
605.01	5388.21
605.20	5322.48
605.40	5273.33
605.59	5219.53
605.78	5263.84
605.98	5213.57
606.17	5149.90
606.36	5246.34
606.56	5310.38
606.75	5270.73
606.94	5236.47
607.14	5172.42
607.33	5231.44
607.52	5292.51
607.72	5419.86
607.91	5330.86
608.10	5319.69
608.30	5355.25
608.49	5307.22
608.68	5315.60
608.88	5396.77
609.07	5391.74
609.26	5376.29
609.46	5352.46
609.65	5398.26
609.84	5200.72
610.03	5250.43
610.23	5272.77
610.42	5278.17
610.61	5237.03
610.81	5106.14
611.00	5026.83
611.19	5003.00
611.39	5016.59
611.58	5019.20
611.77	4897.81
611.97	4923.69
612.16	4897.25
612.35	4842.89
612.54	4850.52
612.74	4808.63
612.93	4846.42
613.12	4856.85
613.32	4861.13
613.51	4845.31
613.70	4836.37
613.89	4982.52
614.09	4971.54
614.28	4953.11
614.47	4935.42
614.67	4892.41
614.86	4916.99
615.05	4866.35
615.24	4801.00
615.44	4800.62
615.63	4842.70
615.82	4963.35
616.01	4763.76
616.21	4738.63
616.40	4680.54
616.59	4727.46
616.78	4722.99
616.98	4659.13
617.17	4687.61
617.36	4752.78
617.56	4834.51
617.75	4759.48
617.94	4647.96
618.13	4717.59
618.33	4732.67
618.52	4788.90
618.71	4758.18
618.90	4746.45
619.10	4791.32
619.29	4739.37
619.48	4679.42
619.67	4653.92
619.86	4726.34
620.06	4685.75
620.25	4699.16
620.44	4744.77
620.63	4752.22
620.83	4779.40
621.02	4830.04
621.21	4887.57
621.40	4928.53
621.60	4903.77
621.79	4830.23
621.98	4775.86
622.17	4743.10
622.36	4641.07
622.56	4607.93
622.75	4573.30
622.94	4631.20
623.13	4561.94
623.33	4475.18
623.52	4489.89
623.71	4461.22
623.90	4528.25
624.09	4520.61
624.29	4566.78
624.48	4550.96
624.67	4510.93
624.86	4496.59
625.05	4491.01
625.25	4519.87
625.44	4527.13
625.63	4563.62
625.82	4590.62
626.01	5149.90
626.21	5141.89
626.40	5100.75
626.59	5172.05
626.78	5259.56
626.97	5379.27
627.16	5289.53
627.36	5314.29
627.55	5262.53
627.74	5218.97
627.93	5269.24
628.12	4755.94
628.31	4799.51
628.51	4786.29
628.70	4766.00
628.89	4667.88
629.08	4637.35
629.27	4625.24
629.47	4595.46
629.66	4582.80
629.85	4692.83
630.04	4642.19
630.23	4556.73
630.42	4496.59
630.61	4493.06
630.81	4439.44
631.00	4496.04
631.19	4388.05
631.38	4436.27
631.57	4415.79
631.76	4461.03
631.96	4441.49
632.15	4418.59
632.34	4472.95
632.53	4538.30
632.72	4609.98
632.91	4589.13
633.10	4565.67
633.29	4656.15
633.49	4590.43
633.68	4594.15
633.87	4635.30
634.06	4496.04
634.25	4541.28
634.44	4547.98
634.63	4500.88
634.83	4410.39
635.02	4411.88
635.21	4385.82
635.40	4397.73
635.59	4379.49
635.78	4429.94
635.97	4413.93
636.16	4473.88
636.35	4464.76
636.55	4377.07
636.74	4403.69
636.93	4419.70
637.12	4429.20
637.31	4470.72
637.50	4350.82
637.69	4332.38
637.88	4264.80
638.07	4312.65
638.26	4253.26
638.46	4237.06
638.65	4278.58
638.84	4254.00
639.03	4315.81
639.22	4334.99
639.41	4308.93
639.60	4353.98
639.79	4386.75
639.98	4349.70
640.17	4271.88
640.36	4284.35
640.56	4258.66
640.75	4215.46
640.94	4170.04
641.13	4137.83
641.32	4120.14
641.51	4127.59
641.70	4079.55
641.89	4053.12
642.08	4216.40
642.27	4250.65
642.46	4315.44
642.65	4360.50
642.84	4415.23
643.03	4469.04
643.22	4466.25
643.42	4510.93
643.61	4454.33
643.80	4529.73
643.99	4564.18
644.18	4435.90
644.37	4409.28
644.56	4325.12
644.75	4293.85
644.94	4220.86
645.13	4193.87
645.32	4257.17
645.51	4284.54
645.70	4322.52
645.89	4305.20
646.08	4304.46
646.27	4378.18
646.46	4388.05
646.65	4399.60
646.84	4456.01
647.03	4468.67
647.22	4438.88
647.41	4383.21
647.60	4365.34
647.79	4442.79
647.98	4424.36
648.17	4442.79
648.36	4422.31
648.56	4468.30
648.75	4557.85
648.94	4495.11
649.13	4471.83
649.32	4487.84
649.51	4433.85
649.70	4337.41
649.89	4289.94
650.08	4252.33
650.27	4327.92
650.46	4267.97
650.65	4199.27
650.84	4165.94
651.03	4209.69
651.22	4274.48
651.41	4314.51
651.60	4337.04
651.79	4370.74
651.98	4327.92
652.17	4451.17
652.36	4313.77
652.55	4289.38
652.74	4228.12
652.92	4257.91
653.11	4265.36
653.30	4245.07
653.49	4171.71
653.68	4141.55
653.87	4184.37
654.06	4207.09
654.25	4056.84
654.44	4079.37
654.63	4164.82
654.82	4224.77
655.01	4103.38
655.20	4135.04
655.39	4116.42
655.58	4146.39
655.77	4165.75
655.96	4193.68
656.15	4199.64
656.34	4261.45
656.53	4243.21
656.72	4284.91
656.91	4257.54
657.10	4304.46
657.29	4296.45
657.48	4342.07
657.67	4362.55
657.86	4364.04
658.04	4329.59
658.23	4351.38
658.42	4351.56
658.61	4353.80
658.80	4227.38
658.99	4196.66
659.18	4175.81
659.37	4122.00
659.56	3998.75
659.75	4008.25
659.94	4035.80
660.13	4043.99
660.32	3975.29
660.51	3939.36
660.69	3967.85
660.88	3986.28
661.07	3986.28
661.26	4022.02
661.45	4077.32
661.64	4115.11
661.83	4291.05
662.02	4228.12
662.21	4215.28
662.40	4238.74
662.59	4246.18
662.78	4267.78
662.96	4289.19
663.15	4316.75
663.34	4294.40
663.53	4256.24
663.72	4309.67
663.91	4117.35
664.10	4096.50
664.29	4046.04
664.48	4098.54
664.66	4161.10
664.85	4134.10
665.04	4100.78
665.23	4106.18
665.42	4114.74
665.61	4113.81
665.80	4175.99
665.99	4125.54
666.18	4265.36
666.36	4289.94
666.55	4209.32
666.74	4168.36
666.93	4250.84
667.12	4310.79
667.31	4325.68
667.50	4308.74
667.69	4314.70
667.87	4242.27
668.06	4269.27
668.25	4157.00
668.44	4145.65
668.63	4144.34
668.82	4146.95
669.01	4046.79
669.19	3998.19
669.38	3984.04
669.57	4021.65
669.76	4041.39
669.95	4078.06
670.14	4165.75
670.32	4167.62
670.51	4145.83
670.70	4150.86
670.89	4186.23
671.08	4258.29
671.27	4264.06
671.46	4290.31
671.64	4262.57
671.83	4335.92
672.02	4337.23
672.21	4302.60
672.40	4396.06
672.59	4406.30
672.77	4513.72
672.96	4481.89
673.15	4383.58
673.34	4379.49
673.53	4386.94
673.71	4347.47
673.90	4230.92
674.09	4129.82
674.28	4064.47
674.47	3953.32
674.66	3999.12
674.84	3978.64
675.03	3951.65
675.22	4014.76
675.41	4000.06
675.60	3997.82
675.78	4029.84
675.97	4051.44
676.16	4086.81
676.35	4086.44
676.54	4249.91
676.72	4195.92
676.91	4157.19
677.10	4145.83
677.29	4103.38
677.47	4235.76
677.66	4241.90
677.85	4204.29
678.04	4156.63
678.23	4227.19
678.41	4233.15
678.60	4068.38
678.79	4097.43
678.98	4137.64
679.17	4143.97
679.35	4321.21
679.54	4227.75
679.73	4150.12
679.92	4184.37
680.10	4291.61
680.29	4196.85
680.48	4229.61
680.67	4297.38
680.85	4251.40
681.04	4320.10
681.23	4417.28
681.42	4249.91
681.60	4216.21
681.79	4237.06
681.98	4234.27
682.17	4123.68
682.35	4182.51
682.54	4179.53
682.73	4160.91
682.92	4214.35
683.10	4046.23
683.29	4013.83
683.48	4030.96
683.67	4082.16
683.85	4099.66
684.04	4142.30
684.23	4166.87
684.42	4149.18
684.60	4118.28
684.79	4112.88
684.98	4113.25
685.16	4123.49
685.35	4052.93
685.54	4157.75
685.73	4204.11
685.91	4172.08
686.10	4075.83
686.29	4060.38
686.48	4012.53
686.66	4057.96
686.85	4047.90
687.04	4141.37
687.22	4146.21
687.41	4122.37
687.60	3984.23
687.78	3899.89
687.97	3925.96
688.16	3947.74
688.35	3975.85
688.53	4000.80
688.72	3995.21
688.91	3972.31
689.09	3908.83
689.28	3940.11
689.47	3979.20
689.65	4029.29
689.84	3991.30
690.03	4050.32
690.22	4127.40
690.40	4124.61
690.59	4110.65
690.78	4078.06
690.96	4076.95
691.15	4065.03
691.34	4022.96
691.52	4070.99
691.71	4045.11
691.90	4006.01
692.08	3967.10
692.27	3929.87
692.46	3915.53
692.64	3919.44
692.83	3965.61
693.02	4026.87
693.20	3946.81
693.39	4022.40
693.58	3945.13
693.76	3942.34
693.95	4053.12
694.14	4022.58
694.32	4008.81
694.51	4021.65
694.70	4048.46
694.88	4000.24
695.07	3960.77
695.25	4123.12
695.44	4097.80
695.63	4103.20
695.81	4109.90
696.00	4113.81
696.19	4156.63
696.37	4240.41
696.56	4310.23
696.75	4278.95
696.93	4267.22
697.12	4250.65
697.30	4156.45
697.49	4131.87
697.68	4159.98
697.86	4140.43
698.05	4089.79
698.24	4094.63
698.42	4010.85
698.61	3976.04
698.79	3934.33
698.98	3985.72
699.17	4422.87
699.35	4399.78
699.54	4358.82
699.72	4340.58
699.91	4417.10
700.10	4428.83
700.28	4346.16
700.47	4372.79
700.65	4324.19
700.84	4327.92
701.03	4359.75
701.21	3976.04
701.40	4031.52
701.58	4025.19
701.77	4194.05
701.96	4168.55
702.14	4160.73
702.33	4206.53
702.51	4154.96
702.70	4127.40
702.89	4144.16
703.07	4037.10
703.26	4020.91
703.44	4104.87
703.63	4183.63
703.81	4077.69
704.00	4012.72
704.19	4041.01
704.37	4048.83
704.56	4057.96
704.74	4041.39
704.93	4078.25
705.11	4115.49
705.30	4096.50
705.49	3920.37
705.67	3861.91
705.86	3876.99
706.04	3933.03
706.23	3843.48
706.41	3874.20
706.60	4056.65
706.78	4072.85
706.97	4097.43
707.16	4103.76
707.34	4079.18
707.53	4135.59
707.71	4153.47
707.90	4182.14
708.08	4140.81
708.27	4142.30
708.45	4075.46
708.64	3911.81
708.82	3928.19
709.01	3877.74
709.19	3840.50
709.38	3861.91
709.56	3859.30
709.75	3879.78
709.94	3879.78
710.12	3842.92
710.31	3949.79
710.49	4052.00
710.68	4074.15
710.86	4046.04
711.05	4108.97
711.23	4096.50
711.42	4149.18
711.60	4127.59
711.79	4146.95
711.97	4014.02
712.16	4164.45
712.34	4182.88
712.53	4122.37
712.71	4149.74
712.90	4155.70
713.08	4264.80
713.27	4343.00
713.45	4306.69
713.64	4315.07
713.82	4343.18
714.01	4356.59
714.19	4324.57
714.38	4367.76
714.56	4850.89
714.75	4771.39
714.93	4763.20
715.12	4592.85
715.30	4624.87
715.49	4596.95
715.67	4613.52
715.85	4508.14
716.04	4545.37
716.22	4523.22
716.41	4348.58
716.59	3846.64
716.78	3854.84
716.96	3920.00
717.15	3928.00
717.33	3848.32
717.52	3906.41
717.70	3894.31
717.89	4675.51
718.07	4673.65
718.25	4717.78
718.44	4821.10
718.62	4887.57
718.81	4892.60
718.99	4858.53
719.18	4879.38
719.36	4895.95
719.55	4847.36
719.73	4891.11
719.92	4180.09
720.10	4091.47
720.28	3975.48
720.47	3942.15
720.65	3848.32
720.84	3795.63
721.02	3883.69
721.21	3854.65
721.39	3895.24
721.57	3871.78
721.76	3794.14
721.94	3731.03
722.13	3832.12
722.31	3863.21
722.50	3817.97
722.68	3971.76
722.86	4092.21
723.05	4022.40
723.23	4094.08
723.42	4063.17
723.60	4096.12
723.78	4061.31
723.97	4089.98
724.15	4003.78
724.34	3982.37
724.52	4011.23
724.70	3848.51
724.89	3788.56
725.07	3747.97
725.26	3660.28
725.44	3749.64
725.62	3717.62
725.81	3785.76
725.99	3747.22
726.18	3796.93
726.36	3807.55
726.54	3827.84
726.73	3837.89
726.91	3880.16
727.10	3916.65
727.28	3931.54
727.46	3843.66
727.65	3826.35
727.83	3882.20
728.01	3912.74
728.20	3925.21
728.38	3919.25
728.57	3895.42
728.75	3895.24
728.93	3829.89
729.12	3771.80
729.30	3772.54
729.48	3730.47
729.67	3724.70
729.85	3652.27
730.03	3628.63
730.22	3640.92
730.40	3679.08
730.58	3623.97
730.77	3625.28
730.95	3708.13
731.13	3705.71
731.32	3701.42
731.50	3719.48
731.69	3746.11
731.87	3785.02
732.05	3791.72
732.24	3760.26
732.42	3705.52
732.60	3773.29
732.79	3750.20
732.97	3651.90
733.15	3655.07
733.34	3630.86
733.52	3619.32
733.70	3608.71
733.89	3536.47
734.07	3617.09
734.25	3596.05
734.43	3587.48
734.62	3560.11
734.80	3590.46
734.98	3655.44
735.17	3731.03
735.35	3783.16
735.53	3842.55
735.72	3893.93
735.90	3953.70
736.08	3873.83
736.27	3844.60
736.45	3891.70
736.63	3879.23
736.81	3840.13
737.00	3807.17
737.18	3802.15
737.36	3794.70
737.55	3761.00
737.73	3732.70
737.91	3649.85
738.10	3702.73
738.28	3762.49
738.46	3761.93
738.64	3897.84
738.83	3917.39
739.01	3907.52
739.19	3852.79
739.38	3843.85
739.56	3813.88
739.74	3804.01
739.92	3966.73
740.11	3989.07
740.29	3976.60
740.47	3936.38
740.65	3808.66
740.84	3908.27
741.02	4001.92
741.20	4080.30
741.38	4116.98
741.57	4149.00
741.75	4232.97
741.93	4066.34
742.11	3959.28
742.30	4026.87
742.48	4067.82
742.66	4062.24
742.84	3982.00
743.03	3867.50
743.21	3792.65
743.39	3804.57
743.57	3753.55
743.76	3629.19
743.94	3773.29
744.12	3862.47
744.30	3790.60
744.49	3734.56
744.67	3779.81
744.85	3797.86
745.03	3833.80
745.22	3831.19
745.40	3835.85
745.58	3873.08
745.76	3920.18
745.94	3782.23
746.13	3730.10
746.31	3830.26
746.49	3881.27
746.67	3814.06
746.86	3815.55
747.04	3781.30
747.22	3754.11
747.40	3700.49
747.58	3667.17
747.77	3630.30
747.95	3642.22
748.13	3610.94
748.31	3479.31
748.49	3459.76
748.68	3505.75
748.86	3462.56
749.04	3475.78
749.22	3487.88
749.40	3499.05
749.59	3568.12
749.77	3613.73
749.95	3648.74
750.13	3774.22
750.31	3835.29
750.49	3823.00
750.68	3816.86
750.86	3863.40
751.04	3826.35
751.22	3921.86
751.40	3871.22
751.59	3790.05
751.77	3767.70
751.95	3709.24
752.13	3604.42
752.31	3553.60
752.49	3549.32
752.68	3543.92
752.86	3521.58
753.04	3586.92
753.22	3563.47
753.40	3606.29
753.58	3615.60
753.76	3679.27
753.95	3808.10
754.13	3787.25
754.31	3785.58
754.49	3865.08
754.67	3863.96
754.85	3920.37
755.04	3875.13
755.22	3831.75
755.40	3871.41
755.58	3855.58
755.76	3831.75
755.94	3717.25
756.12	3783.90
756.30	3882.39
756.49	3806.06
756.67	3781.85
756.85	3692.30
757.03	3725.63
757.21	3721.72
757.39	3627.51
757.57	3648.74
757.75	3606.66
757.94	3693.42
758.12	3699.56
758.30	3648.18
758.48	3615.22
758.66	3659.35
758.84	3714.83
759.02	3660.84
759.20	3694.72
759.38	3757.65
759.57	3732.70
759.75	3939.73
759.93	3866.38
760.11	3850.93
760.29	3811.83
760.47	3814.25
760.65	3798.42
760.83	3769.94
761.01	3801.77
761.19	3775.34
761.38	3773.66
761.56	3940.66
761.74	3816.67
761.92	3811.08
762.10	3852.60
762.28	3872.71
762.46	3909.57
762.64	3886.49
762.82	3868.43
763.00	3928.93
763.18	3923.72
763.36	3950.35
763.54	3803.26
763.73	3765.10
763.91	3867.87
764.09	3842.18
764.27	3804.20
764.45	3788.37
764.63	3830.82
764.81	3845.34
764.99	3819.09
765.17	3878.11
765.35	3838.82
765.53	3840.31
765.71	3815.74
765.89	3721.53
766.07	3691.74
766.25	3671.45
766.43	3688.21
766.61	3655.25
766.79	3649.67
766.98	3620.81
767.16	3602.00
767.34	3584.88
767.52	3570.17
767.70	3558.25
767.88	3547.45
768.06	3507.24
768.24	3554.72
768.42	3525.86
768.60	3492.16
768.78	3534.98
768.96	3492.35
769.14	3457.34
769.32	3427.18
769.50	3483.41
769.68	3525.11
769.86	3560.49
770.04	3590.65
770.22	3610.57
770.40	3617.64
770.58	3677.97
770.76	3610.76
770.94	3704.78
771.12	3712.04
771.30	3825.05
771.48	3824.49
771.66	3766.40
771.84	3741.45
772.02	3717.81
772.20	3745.36
772.38	3832.68
772.56	3857.81
772.74	3918.70
772.92	3832.31
773.10	3809.04
773.28	3799.35
773.46	3751.88
773.64	3735.50
773.82	3795.82
774.00	3821.14
774.18	3744.62
774.36	3658.98
774.54	3621.74
774.72	3600.33
774.90	3642.22
775.08	3664.19
775.26	3631.42
775.44	3717.99
775.62	3745.55
775.80	3701.80
775.97	3639.43
776.15	3671.45
776.33	3692.86
776.51	3691.74
776.69	3723.39
776.87	3746.67
777.05	3720.41
777.23	3706.82
777.41	3604.42
777.59	3564.40
777.77	3521.95
777.95	3661.02
778.13	3679.64
778.31	3702.91
778.49	3735.68
778.67	3655.44
778.85	3605.17
779.03	3589.16
779.21	3574.64
779.38	3703.84
779.56	3788.56
779.74	3813.50
779.92	3704.22
780.10	3712.04
780.28	3759.14
780.46	3686.16
780.64	3776.27
780.82	3777.94
781.00	3773.48
781.18	3734.56
781.36	3632.17
781.53	3586.37
781.71	3603.12
781.89	3637.56
782.07	3548.39
782.25	3507.05
782.43	3535.17
782.61	3478.75
782.79	3582.08
782.97	3588.60
783.15	3607.40
783.33	4211.18
783.50	4183.26
783.68	4135.78
783.86	4158.68
784.04	4227.19
784.22	4255.68
784.40	4255.87
784.58	4257.17
784.76	4158.87
784.94	4184.00
785.11	4162.59
785.29	3538.70
785.47	3534.42
785.65	3557.14
785.83	3499.05
786.01	3474.10
786.19	3404.84
786.37	3387.90
786.54	3382.31
786.72	3404.65
786.90	3435.37
787.08	3431.84
787.26	3450.45
787.44	3460.69
787.62	3501.84
787.79	3483.78
787.97	3472.98
788.15	3467.02
788.33	3462.93
788.51	3508.92
788.69	3467.58
788.87	3456.41
789.04	3494.39
789.22	3494.58
789.40	3450.45
789.58	3411.92
789.76	3416.38
789.94	3432.95
790.11	3422.53
790.29	3492.72
790.47	3412.85
790.65	3443.38
790.83	3408.38
791.01	3416.57
791.18	3459.95
791.36	3513.94
791.54	3539.08
791.72	3606.47
791.90	3706.45
792.07	3689.14
792.25	3707.20
792.43	3766.77
792.61	3797.31
792.79	3785.02
792.97	3730.65
793.14	3735.31
793.32	3716.13
793.50	3701.98
793.68	3736.98
793.86	3639.24
794.03	3705.15
794.21	3714.27
794.39	3680.76
794.57	3703.29
794.75	3691.56
794.92	3726.37
795.10	3702.73
795.28	3705.15
795.46	3707.01
795.64	3649.11
795.81	3651.34
795.99	3590.28
796.17	3526.60
796.35	3531.63
796.52	3456.04
796.70	3479.69
796.88	3491.23
797.06	3424.95
797.24	3415.83
797.41	3437.79
797.59	3414.71
797.77	3422.90
797.95	3488.06
798.12	3442.26
798.30	3445.99
798.48	3453.62
798.66	3446.92
798.83	3530.51
799.01	3596.23
799.19	3659.72
799.37	3640.17
799.54	3654.88
799.72	3720.60
799.90	3683.36
800.08	3686.34
800.25	3660.46
800.43	3680.94
800.61	3701.61
800.79	3620.44
800.96	3606.47
801.14	3568.31
801.32	3592.32
801.50	3601.26
801.67	3532.75
801.85	3667.54
802.03	3649.29
802.21	3750.20
802.38	3787.25
802.56	3739.22
802.74	3742.01
802.91	3717.06
803.09	3785.58
803.27	3895.05
803.45	3902.50
803.62	3865.82
803.80	3798.80
803.98	3974.73
804.15	3913.67
804.33	3807.73
804.51	3821.88
804.69	3778.69
804.86	3786.69
805.04	3754.11
805.22	3594.00
805.39	3639.24
805.57	3627.51
805.75	3523.44
805.92	3466.47
806.10	3417.87
806.28	3423.09
806.45	3522.32
806.63	3537.03
806.81	3568.49
806.99	3540.38
807.16	3556.76
807.34	3534.98
807.52	3556.20
807.69	3694.16
807.87	3562.53
808.05	3686.72
808.22	3691.56
808.40	3672.38
808.58	3655.25
808.75	3595.67
808.93	3539.63
809.11	3537.96
809.28	3486.39
809.46	3491.41
809.64	3416.20
809.81	3431.84
809.99	3340.05
810.17	3413.03
810.34	3339.31
810.52	3387.90
810.70	3430.16
810.87	3433.70
811.05	3482.29
811.22	3456.41
811.40	3439.28
811.58	3399.26
811.75	3419.18
811.93	3445.80
812.11	3482.11
812.28	3495.88
812.46	3455.85
812.64	3421.78
812.81	3482.29
812.99	3394.23
813.16	3407.08
813.34	3452.32
813.52	3458.09
813.69	3458.65
813.87	3391.06
814.05	3358.67
814.22	3330.00
814.40	3335.21
814.57	3404.65
814.75	3381.94
814.93	3438.91
815.10	3446.36
815.28	3430.91
815.46	3409.50
815.63	3430.53
815.81	3518.41
815.98	3472.05
816.16	3500.72
816.34	3489.37
816.51	3419.55
816.69	3385.48
816.86	3368.91
817.04	3377.10
817.21	3332.79
817.39	3355.69
817.57	3359.04
817.74	3328.32
817.92	3340.42
818.09	3345.08
818.27	3372.26
818.45	3379.71
818.62	3415.08
818.80	3376.17
818.97	3405.21
819.15	3413.03
819.32	3483.97
819.50	3492.16
819.68	3462.56
819.85	3554.90
820.03	3572.40
820.20	3647.43
820.38	3651.16
820.55	3762.68
820.73	3783.16
820.91	3776.08
821.08	3907.52
821.26	3903.61
821.43	3840.31
821.61	3828.58
821.78	3734.75
821.96	3689.32
822.13	3647.25
822.31	3652.83
822.48	3551.36
822.66	3577.62
822.84	3652.83
823.01	3556.76
823.19	3458.27
823.36	3488.62
823.54	3530.88
823.71	3524.18
823.89	3607.59
824.06	3541.50
824.24	3534.61
824.41	3491.04
824.59	3428.30
824.76	3292.95
824.94	3234.12
825.11	3258.50
825.29	3247.89
825.46	3200.42
825.64	3233.56
825.81	3174.17
825.99	3169.51
826.16	3182.73
826.34	3202.46
826.52	3258.13
826.69	3280.10
826.87	3352.71
827.04	3351.22
827.22	3353.46
827.39	3341.35
827.57	3338.56
827.74	3309.15
827.91	3326.27
828.09	3326.65
828.26	3359.23
828.44	3404.47
828.61	3431.09
828.79	3435.75
828.96	3435.93
829.14	3462.74
829.31	3519.34
829.49	3521.20
829.66	3599.77
829.84	3645.20
830.01	3644.45
830.19	3678.15
830.36	3658.79
830.54	3647.80
830.71	3599.40
830.89	3607.40
831.06	3632.17
831.24	3587.30
831.41	3584.88
831.58	3486.57
831.76	3455.67
831.93	3458.65
832.11	3460.32
832.28	3431.09
832.46	3387.34
832.63	3434.44
832.81	3433.70
832.98	3368.35
833.16	3421.97
833.33	3397.21
833.50	3474.66
833.68	3509.47
833.85	3527.35
834.03	3510.22
834.20	3472.05
834.38	3606.29
834.55	3605.91
834.72	3648.55
834.90	3760.63
835.07	3822.07
835.25	3828.77
835.42	3786.69
835.60	3771.99
835.77	3775.34
835.94	3735.31
836.12	3780.92
836.29	3645.76
836.47	3589.34
836.64	3497.74
836.81	3463.86
836.99	3350.48
837.16	3363.70
837.34	3354.95
837.51	3289.78
837.68	3259.81
837.86	3276.19
838.03	3260.18
838.21	3297.23
838.38	3280.66
838.55	3283.27
838.73	3192.97
838.90	3196.51
839.08	3164.48
839.25	3169.51
839.42	3215.87
839.60	3210.10
839.77	3134.88
839.95	3131.53
840.12	3110.86
840.29	3134.70
840.47	3144.56
840.64	3195.39
840.81	3211.77
840.99	3249.57
841.16	3295.18
841.34	3274.70
841.51	3297.97
841.68	3384.18
841.86	3381.57
842.03	3350.29
842.20	3347.31
842.38	3376.91
842.55	3413.59
842.72	3440.59
842.90	3427.74
843.07	3399.07
843.24	3407.45
843.42	3378.78
843.59	3413.78
843.77	3489.37
843.94	3540.01
844.11	3540.57
844.29	3528.09
844.46	3456.97
844.63	3459.58
844.81	3413.41
844.98	3462.56
845.15	3479.69
845.33	3474.84
845.50	3404.84
845.67	3298.16
845.85	3313.24
846.02	3332.79
846.19	3286.43
846.37	3341.91
846.54	3382.87
846.71	3384.36
846.88	3331.11
847.06	3264.09
847.23	3395.90
847.40	3403.35
847.58	3450.08
847.75	3414.52
847.92	3403.35
848.10	3446.17
848.27	3439.10
848.44	3454.36
848.62	3459.95
848.79	3444.12
848.96	3507.43
849.13	3405.40
849.31	3399.63
849.48	3399.63
849.65	3457.90
849.83	3517.29
850.00	3538.89
850.17	3753.93
850.34	3661.21
850.52	3662.14
850.69	3731.59
850.86	3714.83
851.04	3767.15
851.21	3765.47
851.38	3763.24
851.55	3703.47
851.73	3652.09
851.90	3683.18
852.07	3423.27
852.24	3480.06
852.42	3459.76
852.59	3412.10
852.76	3391.44
852.93	3312.12
853.11	3344.71
853.28	3294.06
853.45	3286.80
853.62	3369.47
853.80	3342.47
853.97	3376.91
854.14	3286.25
854.31	3311.57
854.49	3297.42
854.66	3325.53
854.83	3345.26
855.00	3405.40
855.18	3525.30
855.35	3525.11
855.52	3440.77
855.69	3435.75
855.87	3440.77
856.04	3447.66
856.21	3450.08
856.38	3454.92
856.56	3606.10
856.73	3618.95
856.90	3554.90
857.07	3434.63
857.24	3556.02
857.42	3569.61
857.59	3548.20
857.76	3655.07
857.93	3758.40
858.10	3722.28
858.28	3729.72
858.45	3589.72
858.62	3564.21
858.79	3583.57
858.96	3656.18
859.14	3555.83
859.31	3567.75
859.48	3581.34
859.65	3444.50
859.82	3405.77
860.00	3434.26
860.17	3389.76
860.34	3370.58
860.51	3366.49
860.68	3297.97
860.86	3270.42
861.03	3263.35
861.20	3251.24
861.37	3233.00
861.54	3243.80
861.71	3192.78
861.89	3312.68
862.06	3367.79
862.23	3588.23
862.40	3623.23
862.57	3641.10
862.74	3662.51
862.92	3671.64
863.09	3720.79
863.26	3711.48
863.43	3683.36
863.60	3722.46
863.77	3608.89
863.95	3643.52
864.12	3409.87
864.29	3436.12
864.46	3416.94
864.63	3380.64
864.80	3403.54
864.97	3307.28
865.15	3326.65
865.32	3340.98
865.49	3311.19
865.66	3330.56
865.83	3304.30
866.00	3361.28
866.17	3325.72
866.35	3377.85
866.52	3407.26
866.69	3397.77
866.86	3364.81
867.03	3381.01
867.20	3428.30
867.37	3393.48
867.54	3458.46
867.72	3384.73
867.89	3335.77
868.06	3276.38
868.23	3229.65
868.40	3197.81
868.57	3186.45
868.74	3239.89
868.91	3248.82
869.08	3188.50
869.26	3193.71
869.43	3126.32
869.60	3193.90
869.77	3178.63
869.94	3210.47
870.11	3195.39
870.28	3183.47
870.45	3152.01
870.62	3183.10
870.79	3201.72
870.96	3196.32
871.14	3247.15
871.31	3242.68
871.48	3284.57
871.65	3286.43
871.82	3298.35
871.99	3335.58
872.16	3368.16
872.33	3441.89
872.50	3400.37
872.67	3318.64
872.84	3319.76
873.01	3282.71
873.18	3263.90
873.35	3237.84
873.53	3232.44
873.70	3241.19
873.87	3191.67
874.04	3210.84
874.21	3197.07
874.38	3300.58
874.55	3305.79
874.72	3367.98
874.89	3349.73
875.06	3362.39
875.23	3289.97
875.40	3385.85
875.57	3394.60
875.74	3450.08
875.91	3394.23
876.08	3343.40
876.25	3219.59
876.42	3335.58
876.59	3245.47
876.76	3272.47
876.93	3262.04
877.10	3293.32
877.27	3203.21
877.44	3208.98
877.61	3156.29
877.79	3265.58
877.96	3243.80
878.13	3256.46
878.30	3252.92
878.47	3277.12
878.64	3265.95
878.81	3346.94
878.98	3355.13
879.15	3348.62
879.32	3369.47
879.49	3403.17
879.66	3353.46
879.83	3423.65
880.00	3442.64
880.17	3418.06
880.34	3487.50
880.51	3553.78
880.68	3577.06
880.85	3557.88
881.02	3545.78
881.19	3588.04
881.36	3611.13
881.53	3635.89
881.69	3593.44
881.86	3607.59
882.03	3618.39
882.20	3645.57
882.37	3595.30
882.54	3532.56
882.71	3514.87
882.88	3574.45
883.05	3496.81
883.22	3455.11
883.39	3439.10
883.56	3506.68
883.73	3498.49
883.90	3496.26
884.07	3400.56
884.24	3423.46
884.41	3507.43
884.58	3557.51
884.75	3529.39
884.92	3566.82
885.09	3694.91
885.26	3688.95
885.43	3662.14
885.60	3687.65
885.77	3616.53
885.93	3708.69
886.10	3738.29
886.27	3613.36
886.44	3672.94
886.61	3639.80
886.78	3593.07
886.95	3506.68
887.12	3484.90
887.29	3480.80
887.46	3478.20
887.63	3529.95
887.80	3420.29
887.97	3367.42
888.14	3357.74
888.30	3265.95
888.47	3392.93
888.64	3365.00
888.81	3432.95
888.98	3476.71
889.15	3423.46
889.32	3446.36
889.49	3429.04
889.66	3501.65
889.83	3531.44
890.00	3558.62
890.16	3644.83
890.33	3570.91
890.50	3647.06
890.67	3579.48
890.84	3547.83
891.01	4140.99
891.18	3381.20
891.35	3833.80
891.52	3485.64
891.68	3522.51

