SpectraSuite Data File
++++++++++++++++++++++++++++++++++++
Date: Wed Mar 10 15:34:56 EST 2021
User: student
Dark Spectrum Present: No
Reference Spectrum Present: No
Number of Sampled Component Spectra: 1
Spectrometers: USB4F09272
Integration Time (usec): 4000000 (USB4F09272)
Spectra Averaged: 1 (USB4F09272)
Boxcar Smoothing: 5 (USB4F09272)
Correct for Electrical Dark: No (USB4F09272)
Strobe/Lamp Enabled: No (USB4F09272)
Correct for Detector Non-linearity: No (USB4F09272)
Correct for Stray Light: No (USB4F09272)
Number of Pixels in Processed Spectrum: 3648
>>>>>Begin Processed Spectral Data<<<<<
175.94	1249.26
176.16	1249.26
176.38	1249.26
176.61	1243.12
176.83	1306.60
177.05	2672.23
177.27	2881.68
177.49	3117.75
177.71	3312.12
177.93	3557.32
178.15	3870.10
178.37	3756.53
178.59	3752.44
178.81	3733.63
179.03	3761.00
179.25	3755.04
179.47	3788.56
179.69	3749.09
179.91	3761.93
180.13	3786.51
180.35	3807.55
180.58	3688.02
180.80	3719.11
181.02	3636.08
181.24	3674.24
181.46	3705.71
181.68	3568.12
181.90	3546.71
182.12	3569.42
182.34	3510.40
182.56	3536.10
182.78	3421.60
183.00	3470.56
183.22	3506.87
183.44	3494.58
183.66	3480.06
183.88	3401.12
184.10	3368.91
184.32	3433.89
184.54	3456.04
184.76	3471.68
184.98	3430.91
185.20	3490.11
185.42	3548.76
185.64	3466.09
185.86	3529.95
186.08	3558.62
186.30	3628.63
186.52	3726.74
186.74	3820.58
186.96	3774.96
187.18	3807.73
187.40	3868.05
187.62	3943.64
187.84	3822.25
188.06	3830.07
188.28	3797.49
188.50	3793.21
188.72	3859.49
188.94	3771.99
189.16	3680.94
189.38	3705.71
189.60	3629.00
189.82	3522.13
190.04	3414.52
190.26	3405.77
190.48	3485.46
190.70	3521.58
190.92	3519.53
191.14	3440.59
191.36	3566.63
191.58	3492.90
191.80	3560.67
192.02	3584.13
192.24	3636.63
192.46	3669.03
192.68	3697.70
192.90	3621.18
193.12	3593.81
193.34	3594.74
193.56	3567.19
193.78	3415.83
194.00	3545.41
194.22	3502.77
194.44	3553.78
194.66	3563.65
194.88	3577.80
195.10	3595.30
195.32	3596.42
195.54	3632.72
195.76	3594.93
195.98	3666.42
196.20	3661.40
196.42	3506.49
196.64	3464.42
196.86	3403.35
197.08	3352.71
197.30	3313.61
197.51	3333.16
197.73	3348.43
197.95	3386.41
198.17	3511.15
198.39	3412.10
198.61	3429.79
198.83	3500.16
199.05	3489.74
199.27	3476.52
199.49	3571.10
199.71	3656.00
199.93	3591.58
200.15	3544.48
200.37	3475.78
200.59	3340.98
200.81	3356.43
201.03	3352.71
201.25	3338.38
201.46	3395.53
201.68	3402.05
201.90	3338.93
202.12	3324.41
202.34	3360.72
202.56	3456.79
202.78	3471.12
203.00	3490.67
203.22	3455.85
203.44	3499.23
203.66	3475.03
203.88	3427.74
204.10	3436.86
204.31	3475.03
204.53	3387.34
204.75	3382.69
204.97	3377.47
205.19	3424.20
205.41	3579.48
205.63	3734.19
205.85	3764.91
206.07	3893.93
206.29	4000.61
206.51	3992.79
206.73	4026.12
206.94	4020.35
207.16	3961.70
207.38	3910.69
207.60	3872.52
207.82	3714.08
208.04	3624.35
208.26	3567.19
208.48	3478.94
208.70	3421.22
208.91	3471.68
209.13	3421.41
209.35	3424.02
209.57	3439.47
209.79	3398.32
210.01	3391.81
210.23	3483.97
210.45	3580.04
210.67	3605.17
210.88	3565.14
211.10	3580.22
211.32	3584.32
211.54	3534.98
211.76	3563.47
211.98	3691.18
212.20	3712.04
212.42	3728.05
212.63	3613.55
212.85	3476.52
213.07	3463.86
213.29	3410.43
213.51	3369.84
213.73	3349.92
213.95	3387.15
214.17	3371.70
214.38	3254.78
214.60	3241.19
214.82	3185.89
215.04	3180.12
215.26	3200.79
215.48	3259.44
215.70	3396.28
215.91	3406.14
216.13	3443.94
216.35	3422.90
216.57	3443.19
216.79	3474.29
217.01	3586.37
217.23	3577.62
217.44	3613.18
217.66	3601.82
217.88	3541.87
218.10	3486.39
218.32	3459.39
218.54	3415.83
218.75	3429.23
218.97	3486.95
219.19	3495.32
219.41	3464.79
219.63	3513.76
219.85	3468.14
220.06	3461.63
220.28	3471.31
220.50	3505.38
220.72	3488.81
220.94	3527.53
221.16	3559.93
221.37	3581.71
221.59	3516.92
221.81	3517.29
222.03	3548.20
222.25	3681.32
222.46	3742.20
222.68	3717.99
222.90	3776.27
223.12	3807.92
223.34	3755.79
223.56	3728.98
223.77	3750.02
223.99	3774.96
224.21	3819.65
224.43	3771.24
224.65	3624.72
224.86	3591.02
225.08	3625.65
225.30	3470.00
225.52	3401.49
225.74	3415.27
225.95	3504.63
226.17	3509.10
226.39	3507.43
226.61	3446.73
226.83	3669.03
227.04	3721.53
227.26	3715.20
227.48	3692.86
227.70	3717.44
227.92	3856.70
228.13	3841.99
228.35	3751.88
228.57	3607.78
228.79	3618.02
229.00	3585.99
229.22	3393.48
229.44	3344.15
229.66	3322.74
229.88	3374.87
230.09	3399.81
230.31	3343.22
230.53	3343.59
230.75	3332.79
230.96	3442.26
231.18	3516.55
231.40	3516.18
231.62	3491.23
231.84	3574.82
232.05	3575.01
232.27	3555.46
232.49	3596.98
232.71	3565.70
232.92	3611.50
233.14	3550.43
233.36	3475.22
233.58	3378.96
233.79	3403.91
234.01	3403.17
234.23	3416.76
234.45	3418.06
234.66	3413.03
234.88	3343.03
235.10	3344.15
235.32	3290.15
235.53	3319.76
235.75	3360.53
235.97	3332.98
236.19	3428.11
236.40	3435.93
236.62	3436.68
236.84	3440.22
237.06	3488.25
237.27	3624.72
237.49	3570.54
237.71	3563.47
237.92	3580.59
238.14	3515.43
238.36	3522.51
238.58	3381.57
238.79	3373.94
239.01	3270.79
239.23	3319.20
239.45	3202.46
239.66	3129.30
239.88	3189.25
240.10	3219.22
240.31	3199.67
240.53	3202.28
240.75	3294.62
240.97	3316.96
241.18	3412.66
241.40	3412.10
241.62	3348.06
241.83	3353.27
242.05	3287.92
242.27	3298.72
242.49	3219.22
242.70	3287.73
242.92	3262.79
243.14	3253.48
243.35	3237.47
243.57	3170.26
243.79	3211.03
244.00	3318.27
244.22	3577.43
244.44	3578.73
244.66	3551.92
244.87	3661.02
245.09	3561.42
245.31	3590.83
245.52	3577.06
245.74	3561.60
245.96	3521.02
246.17	3481.55
246.39	3488.99
246.61	3265.21
246.82	3266.14
247.04	3310.63
247.26	3238.40
247.47	3288.67
247.69	3354.01
247.91	3321.62
248.13	3370.40
248.34	3375.61
248.56	3416.38
248.78	3409.68
248.99	3395.90
249.21	3386.78
249.43	3337.63
249.64	3339.49
249.86	3325.16
250.08	3354.76
250.29	3342.66
250.51	3300.95
250.73	3345.64
250.94	3405.21
251.16	3365.74
251.37	3440.22
251.59	3465.16
251.81	3662.89
252.02	3687.27
252.24	3744.99
252.46	3719.67
252.67	3688.39
252.89	3696.40
253.11	3655.07
253.32	3588.04
253.54	3512.08
253.76	3470.93
253.97	3505.01
254.19	3272.10
254.41	3260.18
254.62	3218.66
254.84	3109.19
255.05	3143.26
255.27	3160.57
255.49	3150.15
255.70	3121.66
255.92	3149.22
256.14	3136.56
256.35	3104.16
256.57	3156.48
256.79	3175.84
257.00	3295.37
257.22	3295.93
257.43	3325.90
257.65	3296.48
257.87	3301.70
258.08	3291.64
258.30	3287.73
258.51	3262.97
258.73	3287.73
258.95	3301.51
259.16	3272.65
259.38	3140.28
259.60	3131.16
259.81	3149.78
260.03	3148.66
260.24	3171.37
260.46	3178.26
260.68	3264.28
260.89	3295.37
261.11	3235.60
261.32	3217.55
261.54	3281.03
261.76	3338.93
261.97	3372.45
262.19	3323.67
262.40	3333.72
262.62	3301.33
262.84	3363.32
263.05	3357.37
263.27	3360.16
263.48	3373.56
263.70	3355.13
263.91	3332.60
264.13	3265.58
264.35	3271.54
264.56	3272.28
264.78	3259.25
264.99	3279.92
265.21	3318.08
265.43	3309.70
265.64	3250.13
265.86	3237.65
266.07	3291.83
266.29	3348.99
266.50	3354.95
266.72	3382.13
266.94	3436.49
267.15	3463.67
267.37	3454.92
267.58	3393.11
267.80	3297.04
268.01	3370.21
268.23	3342.10
268.44	3286.62
268.66	3190.74
268.88	3251.43
269.09	3256.46
269.31	3264.09
269.52	3232.07
269.74	3320.13
269.95	3383.24
270.17	3437.61
270.38	3438.17
270.60	3468.70
270.82	3472.61
271.03	3558.07
271.25	3574.08
271.46	3794.33
271.68	3769.19
271.89	3876.62
272.11	3857.07
272.32	3873.27
272.54	3839.76
272.75	3829.14
272.97	3819.09
273.18	3852.04
273.40	3747.41
273.62	3702.54
273.83	3431.46
274.05	3460.14
274.26	3405.59
274.48	3282.52
274.69	3306.54
274.91	3310.63
275.12	3309.33
275.34	3303.75
275.55	3335.21
275.77	3420.67
275.98	3372.07
276.20	3377.85
276.41	3404.47
276.63	3462.18
276.84	3478.01
277.06	3324.97
277.27	3319.01
277.49	3313.61
277.70	3317.52
277.92	3279.54
278.13	3267.81
278.35	3295.93
278.56	3337.63
278.78	3255.34
278.99	3311.94
279.21	3401.49
279.42	3489.37
279.64	3465.72
279.85	3467.58
280.07	3535.91
280.28	3588.60
280.50	3591.76
280.71	3676.10
280.93	3635.52
281.14	3655.25
281.36	3504.07
281.57	3508.17
281.79	3418.43
282.00	3454.55
282.22	3403.35
282.43	3372.07
282.65	3377.66
282.86	3287.18
283.08	3200.23
283.29	3254.78
283.51	3268.56
283.72	3289.78
283.94	3218.85
284.15	3273.77
284.36	3269.68
284.58	3308.40
284.79	3316.78
285.01	3260.18
285.22	3384.73
285.44	3376.73
285.65	3341.73
285.87	3319.76
286.08	3286.80
286.30	3301.70
286.51	3267.07
286.73	3306.72
286.94	3389.39
287.15	3408.94
287.37	3397.02
287.58	3262.97
287.80	3219.41
288.01	3187.01
288.23	3170.07
288.44	3169.32
288.66	3154.99
288.87	3151.64
289.08	3151.45
289.30	3071.95
289.51	3021.68
289.73	2975.51
289.94	3054.64
290.16	3063.95
290.37	3058.18
290.58	3228.16
290.80	3225.74
291.01	3244.73
291.23	3289.04
291.44	3243.42
291.66	3236.16
291.87	3258.13
292.08	3382.87
292.30	3332.23
292.51	3449.34
292.73	3513.57
292.94	3394.97
293.16	3459.02
293.37	3456.04
293.58	3524.55
293.80	3552.11
294.01	3656.74
294.23	3777.57
294.44	3708.13
294.65	3797.49
294.87	3717.44
295.08	3659.35
295.30	3621.55
295.51	3628.81
295.72	3653.20
295.94	3673.87
296.15	3671.64
296.37	3564.40
296.58	3492.35
296.79	3491.04
297.01	3407.26
297.22	3424.20
297.44	3465.54
297.65	3450.83
297.86	3475.96
298.08	3447.10
298.29	3336.14
298.51	3301.70
298.72	3267.81
298.93	3216.80
299.15	3332.42
299.36	3309.70
299.57	3337.07
299.79	3383.43
300.00	3381.01
300.22	3303.93
300.43	3275.26
300.64	3289.04
300.86	3400.00
301.07	3476.71
301.28	3473.17
301.50	3331.67
301.71	3424.02
301.93	3405.03
302.14	3332.42
302.35	3320.50
302.57	3322.92
302.78	3363.51
302.99	3362.39
303.21	3257.39
303.42	3247.15
303.63	3261.67
303.85	3330.56
304.06	3276.56
304.28	3332.60
304.49	3370.21
304.70	3433.14
304.92	3412.47
305.13	3489.37
305.34	3432.77
305.56	3402.23
305.77	3397.21
305.98	3402.42
306.20	3348.24
306.41	3342.10
306.62	3263.16
306.84	3334.47
307.05	3271.54
307.26	3354.95
307.48	3277.68
307.69	3374.31
307.90	3370.58
308.12	3306.54
308.33	3264.83
308.54	3255.53
308.76	3293.69
308.97	3267.44
309.18	3154.99
309.40	3118.31
309.61	3045.14
309.82	2997.85
310.04	2969.55
310.25	3030.99
310.46	3048.68
310.67	3007.16
310.89	3067.48
311.10	3086.66
311.31	3142.89
311.53	3204.33
311.74	3245.84
311.95	3275.45
312.17	3293.51
312.38	3256.64
312.59	3234.49
312.81	3255.34
313.02	3356.25
313.23	3333.72
313.44	3254.97
313.66	3204.51
313.87	3163.93
314.08	3165.97
314.30	3184.59
314.51	3162.25
314.72	3179.19
314.93	3270.79
315.15	3225.74
315.36	3226.48
315.57	3178.63
315.79	3190.55
316.00	3160.20
316.21	3120.92
316.42	3191.85
316.64	3192.22
316.85	3185.89
317.06	3220.71
317.28	3094.67
317.49	3110.49
317.70	3037.88
317.91	3026.15
318.13	3021.13
318.34	3068.04
318.55	3108.26
318.76	3091.50
318.98	3042.35
319.19	3125.76
319.40	3154.99
319.62	3175.28
319.83	3204.14
320.04	3218.85
320.25	3270.05
320.47	3332.98
320.68	3314.36
320.89	3274.89
321.10	3204.88
321.32	3211.40
321.53	3163.74
321.74	3098.39
321.95	3134.14
322.17	3130.41
322.38	3139.16
322.59	3094.85
322.80	3046.26
323.02	3180.68
323.23	3166.35
323.44	3256.27
323.65	3238.96
323.86	3297.23
324.08	3260.55
324.29	3213.82
324.50	3222.94
324.71	3293.69
324.93	3367.61
325.14	3381.57
325.35	3297.23
325.56	3352.52
325.78	3274.89
325.99	3284.01
326.20	3256.46
326.41	3351.41
326.62	3405.59
326.84	3390.32
327.05	3321.25
327.26	3232.44
327.47	3231.32
327.69	3201.16
327.90	3254.97
328.11	3335.95
328.32	3316.03
328.53	3299.28
328.75	3305.24
328.96	3282.89
329.17	3243.98
329.38	3201.53
329.59	3257.76
329.81	3285.31
330.02	3283.82
330.23	3305.98
330.44	3282.89
330.65	3309.89
330.87	3307.47
331.08	3207.68
331.29	3182.54
331.50	3225.18
331.71	3309.89
331.92	3272.28
332.14	3237.65
332.35	3319.38
332.56	3208.98
332.77	3160.39
332.98	3284.20
333.20	3264.28
333.41	3294.25
333.62	3269.49
333.83	3286.62
334.04	3255.34
334.25	3278.61
334.47	3237.28
334.68	3157.78
334.89	3174.35
335.10	3238.02
335.31	3072.14
335.52	3046.45
335.74	3097.65
335.95	3176.40
336.16	3143.82
336.37	3144.94
336.58	3122.59
336.79	3132.09
337.01	3127.25
337.22	3170.81
337.43	3061.15
337.64	3092.25
337.85	3110.68
338.06	3078.84
338.28	3043.65
338.49	3104.91
338.70	3107.51
338.91	3128.18
339.12	3151.64
339.33	3119.24
339.54	3146.05
339.76	3207.49
339.97	3217.92
340.18	3223.50
340.39	3204.51
340.60	3363.32
340.81	3333.16
341.02	3306.54
341.23	3311.01
341.45	3332.79
341.66	3349.92
341.87	3275.45
342.08	3224.99
342.29	3197.07
342.50	3228.53
342.71	3311.75
342.92	3160.39
343.14	3135.25
343.35	3161.69
343.56	3101.00
343.77	3088.34
343.98	3099.69
344.19	3185.52
344.40	3195.58
344.61	3234.30
344.82	3205.44
345.04	3122.59
345.25	3183.29
345.46	3214.75
345.67	3180.31
345.88	3198.55
346.09	3201.72
346.30	3252.36
346.51	3165.23
346.72	3238.96
346.94	3227.04
347.15	3261.67
347.36	3268.19
347.57	3279.17
347.78	3224.06
347.99	3225.74
348.20	3292.39
348.41	3336.14
348.62	3349.55
348.83	3400.75
349.04	3432.21
349.25	3411.92
349.47	3395.35
349.68	3407.45
349.89	3377.10
350.10	3454.74
350.31	3424.02
350.52	3400.00
350.73	3389.57
350.94	3351.97
351.15	3427.93
351.36	3308.21
351.57	3318.45
351.78	3286.25
351.99	3307.10
352.21	3253.66
352.42	3269.86
352.63	3318.08
352.84	3270.23
353.05	3290.15
353.26	3233.74
353.47	3087.41
353.68	3079.40
353.89	3086.10
354.10	3139.35
354.31	3092.06
354.52	3085.17
354.73	3190.36
354.94	3178.08
355.15	3234.86
355.36	3164.48
355.57	3270.23
355.78	3365.19
355.99	3408.94
356.20	3392.18
356.42	3418.80
356.63	3428.11
356.84	3423.83
357.05	3378.59
357.26	3353.08
357.47	3359.23
357.68	3382.69
357.89	3315.10
358.10	3210.84
358.31	3187.76
358.52	3204.88
358.73	3163.74
358.94	3188.31
359.15	3290.90
359.36	3177.70
359.57	3313.05
359.78	3303.19
359.99	3281.78
360.20	3355.88
360.41	3358.11
360.62	3333.72
360.83	3354.76
361.04	3371.52
361.25	3353.08
361.46	3300.39
361.67	3342.84
361.88	3248.82
362.09	3203.40
362.30	3197.44
362.51	3194.65
362.72	3258.69
362.93	3283.08
363.14	3242.31
363.35	3273.40
363.56	3359.97
363.77	3304.86
363.98	3243.61
364.19	3347.87
364.40	3426.62
364.61	3524.55
364.82	3440.77
365.03	3559.37
365.24	3642.59
365.45	3749.83
365.66	3648.74
365.87	3552.11
366.08	3629.75
366.29	3731.21
366.50	3637.01
366.71	3566.07
366.92	3538.89
367.13	3622.11
367.34	3461.25
367.55	3420.85
367.76	3383.80
367.97	3404.28
368.18	3631.98
368.39	3559.93
368.60	3458.65
368.81	3443.94
369.01	3509.47
369.22	3497.74
369.43	3455.30
369.64	3433.33
369.85	3423.65
370.06	3386.97
370.27	3395.72
370.48	3193.34
370.69	3184.22
370.90	3240.63
371.11	3341.17
371.32	3261.67
371.53	3184.78
371.74	3207.12
371.95	3321.25
372.16	3274.14
372.37	3233.18
372.58	3400.19
372.79	3391.44
372.99	3369.47
373.20	3388.27
373.41	3374.31
373.62	3515.62
373.83	3522.69
374.04	3442.26
374.25	3470.56
374.46	3498.68
374.67	3485.46
374.88	3297.42
375.09	3312.87
375.30	3415.45
375.51	3349.36
375.72	3251.99
375.92	3144.75
376.13	3170.63
376.34	3316.78
376.55	3256.08
376.76	3258.32
376.97	3424.95
377.18	3467.02
377.39	3515.43
377.60	3499.98
377.81	3529.77
378.02	3669.03
378.22	3636.82
378.43	3633.28
378.64	3526.04
378.85	3505.38
379.06	3514.50
379.27	3415.64
379.48	3551.74
379.69	3502.59
379.90	3550.62
380.11	3507.05
380.31	3493.09
380.52	3513.38
380.73	3549.69
380.94	3557.88
381.15	3577.06
381.36	3584.13
381.57	3583.76
381.78	3428.67
381.99	3412.10
382.19	3346.57
382.40	3342.10
382.61	3261.67
382.82	3316.22
383.03	3330.37
383.24	3320.32
383.45	3285.87
383.65	3283.27
383.86	3217.36
384.07	3212.89
384.28	3209.35
384.49	3274.52
384.70	3332.05
384.91	3278.05
385.12	3220.15
385.32	3211.03
385.53	3173.23
385.74	3154.80
385.95	3169.70
386.16	3218.10
386.37	3215.31
386.58	3261.30
386.78	3164.67
386.99	3198.18
387.20	3220.52
387.41	3249.57
387.62	3228.72
387.83	3280.47
388.03	3292.58
388.24	3298.72
388.45	3311.94
388.66	3307.66
388.87	3253.66
389.08	3270.61
389.28	3227.04
389.49	3273.96
389.70	3274.70
389.91	3301.88
390.12	3378.78
390.33	3411.54
390.53	3401.12
390.74	3450.45
390.95	3556.58
391.16	3575.01
391.37	3612.24
391.58	3643.89
391.78	3602.56
391.99	3612.80
392.20	3540.94
392.41	3465.54
392.62	3468.14
392.82	3504.26
393.03	3455.67
393.24	3374.12
393.45	3409.68
393.66	3395.90
393.87	3485.83
394.07	3596.42
394.28	3604.61
394.49	3735.68
394.70	3753.74
394.91	3738.10
395.11	3777.94
395.32	3818.72
395.53	3948.30
395.74	3933.03
395.94	3952.77
396.15	3884.81
396.36	3813.50
396.57	3809.22
396.78	3753.18
396.98	3811.27
397.19	3882.76
397.40	3850.55
397.61	3851.86
397.82	3808.29
398.02	3835.66
398.23	3832.31
398.44	3868.61
398.65	3969.71
398.85	4049.21
399.06	4158.12
399.27	4234.27
399.48	4252.33
399.69	4266.11
399.89	4282.49
400.10	4283.05
400.31	4320.66
400.52	4340.39
400.72	4258.47
400.93	4222.73
401.14	4266.29
401.35	4184.00
401.55	4097.99
401.76	4092.03
401.97	4097.61
402.18	4189.59
402.38	4134.85
402.59	4195.73
402.80	4233.90
403.01	4273.92
403.21	4337.78
403.42	4430.31
403.63	4492.13
403.84	4482.82
404.04	4437.76
404.25	4537.37
404.46	4438.13
404.67	4459.36
404.87	4383.77
405.08	4369.81
405.29	4488.03
405.50	4426.78
405.70	4251.21
405.91	4316.75
406.12	4315.07
406.32	4302.97
406.53	4193.31
406.74	4180.65
406.95	4195.73
407.15	4209.51
407.36	4163.15
407.57	4103.76
407.77	4061.31
407.98	4016.63
408.19	3856.70
408.40	3869.36
408.60	4014.39
408.81	3979.20
409.02	3967.10
409.22	3917.58
409.43	3872.34
409.64	3855.95
409.85	3747.78
410.05	3739.78
410.26	3863.96
410.47	3857.63
410.67	3787.44
410.88	3676.48
411.09	3699.93
411.29	3689.88
411.50	3733.82
411.71	3733.63
411.92	3753.93
412.12	3786.14
412.33	3851.11
412.54	3775.90
412.74	3801.77
412.95	3807.36
413.16	3871.41
413.36	3846.64
413.57	3929.87
413.78	3934.52
413.98	3951.09
414.19	3963.38
414.40	3939.92
414.60	3816.86
414.81	3753.37
415.02	3738.85
415.22	3795.44
415.43	3670.70
415.64	3674.24
415.84	3650.23
416.05	3583.01
416.26	3488.06
416.46	3441.89
416.67	3425.13
416.88	3472.42
417.08	3596.05
417.29	3535.35
417.50	3448.78
417.70	3489.37
417.91	3464.79
418.12	3404.65
418.32	3445.43
418.53	3497.37
418.74	3487.69
418.94	3446.73
419.15	3421.97
419.36	3328.51
419.56	3334.09
419.77	3415.08
419.97	3512.45
420.18	3586.74
420.39	3598.84
420.59	3620.99
420.80	3653.58
421.01	3646.50
421.21	3781.85
421.42	3841.99
421.63	3853.35
421.83	3936.01
422.04	3853.72
422.24	3751.32
422.45	3766.77
422.66	3752.06
422.86	3709.80
423.07	3642.96
423.28	3835.66
423.48	3710.73
423.69	3664.37
423.89	3700.31
424.10	3610.20
424.31	3683.92
424.51	3729.91
424.72	3622.86
424.92	3633.10
425.13	3630.86
425.34	3610.94
425.54	3435.37
425.75	3454.92
425.95	3440.22
426.16	3329.44
426.37	3313.61
426.57	3287.36
426.78	3248.82
426.98	3235.23
427.19	3158.71
427.40	3109.75
427.60	3168.58
427.81	3192.78
428.01	3224.06
428.22	3207.12
428.43	3237.09
428.63	3263.35
428.84	3206.19
429.04	3290.15
429.25	3357.92
429.45	3412.66
429.66	3436.86
429.87	3438.91
430.07	3386.04
430.28	3311.57
430.48	3306.91
430.69	3312.87
430.89	3320.69
431.10	3338.19
431.31	3166.53
431.51	3198.93
431.72	3208.61
431.92	3176.59
432.13	3156.29
432.33	3234.67
432.54	3362.76
432.74	3331.67
432.95	3386.97
433.16	3349.73
433.36	3343.59
433.57	3527.35
433.77	3446.36
433.98	3557.69
434.18	3639.61
434.39	3654.88
434.59	3656.00
434.80	3572.77
435.01	3650.41
435.21	3579.29
435.42	3612.80
435.62	3666.79
435.83	3546.34
436.03	3535.35
436.24	3421.97
436.44	3354.01
436.65	3353.08
436.85	3291.64
437.06	3307.10
437.26	3241.38
437.47	3291.64
437.67	3403.35
437.88	3352.71
438.08	3320.13
438.29	3335.95
438.50	3391.81
438.70	3375.98
438.91	3366.49
439.11	3340.24
439.32	3300.21
439.52	3369.47
439.73	3326.65
439.93	3219.78
440.14	3315.10
440.34	3370.96
440.55	3354.20
440.75	3276.56
440.96	3272.65
441.16	3242.12
441.37	3301.70
441.57	3310.08
441.78	3281.96
441.98	3305.24
442.19	3286.06
442.39	3170.26
442.60	3936.38
442.80	3911.25
443.01	4049.02
443.21	4065.59
443.42	4080.48
443.62	4060.94
443.83	4858.71
444.03	4833.39
444.23	4865.60
444.44	4890.74
444.64	4944.73
444.85	4175.06
445.05	4261.64
445.26	4235.39
445.46	4248.05
445.67	4239.30
445.87	4204.29
446.08	3455.85
446.28	3446.92
446.49	3447.10
446.69	3431.28
446.90	3434.82
447.10	3386.60
447.31	3328.51
447.51	3197.07
447.71	3217.55
447.92	3247.52
448.12	3297.60
448.33	3302.63
448.53	3312.68
448.74	3244.91
448.94	3277.31
449.15	3273.03
449.35	3333.35
449.56	3342.29
449.76	3372.26
449.96	3427.93
450.17	3450.08
450.37	3408.56
450.58	3387.71
450.78	3377.85
450.99	3388.83
451.19	3402.98
451.39	3455.85
451.60	3383.43
451.80	3399.44
452.01	3379.71
452.21	3322.74
452.42	3279.92
452.62	3326.65
452.82	3280.29
453.03	3279.17
453.23	3304.49
453.44	3275.45
453.64	3200.98
453.85	3236.54
454.05	3211.59
454.25	3270.98
454.46	3273.77
454.66	3343.03
454.87	3272.28
455.07	3309.89
455.27	3314.54
455.48	3314.73
455.68	3279.17
455.89	3228.72
456.09	3189.43
456.29	3217.73
456.50	3159.46
456.70	3093.92
456.91	3025.78
457.11	3144.19
457.31	3193.53
457.52	3333.91
457.72	3342.29
457.93	3454.18
458.13	3508.36
458.33	3623.60
458.54	3624.35
458.74	3618.76
458.95	3684.30
459.15	3673.13
459.35	3648.55
459.56	3613.18
459.76	3485.83
459.96	3496.44
460.17	3441.15
460.37	3480.80
460.58	3464.60
460.78	3487.88
460.98	3609.08
461.19	3661.21
461.39	3687.65
461.59	3667.17
461.80	3680.57
462.00	3726.19
462.21	3726.37
462.41	3699.00
462.61	3654.32
462.82	3564.21
463.02	3555.27
463.22	3527.16
463.43	3521.95
463.63	3512.27
463.83	3477.45
464.04	3433.33
464.24	3433.89
464.44	3464.05
464.65	3518.97
464.85	3967.85
465.05	4005.27
465.26	4002.66
465.46	3936.57
465.66	3893.19
465.87	4017.93
466.07	4053.67
466.27	4183.44
466.48	4212.67
466.68	4181.39
466.88	4161.66
467.09	3728.98
467.29	3780.74
467.49	3852.79
467.70	3862.66
467.90	3843.85
468.10	3710.36
468.31	3791.35
468.51	3749.83
468.71	3711.48
468.92	3673.50
469.12	3729.16
469.32	3734.38
469.53	3698.45
469.73	3598.84
469.93	3596.42
470.14	3641.29
470.34	3617.64
470.54	3504.26
470.74	3452.50
470.95	3452.69
471.15	3462.56
471.35	3381.20
471.56	3379.71
471.76	3367.23
471.96	3358.67
472.17	3431.28
472.37	3630.12
472.57	3701.98
472.77	3770.68
472.98	3758.21
473.18	3716.32
473.38	3847.95
473.59	3881.46
473.79	3890.02
473.99	3931.91
474.19	3988.14
474.40	4002.66
474.60	3826.16
474.80	3907.71
475.01	3933.59
475.21	3931.36
475.41	3975.85
475.61	3959.65
475.82	3979.76
476.02	4030.22
476.22	4033.20
476.42	4075.09
476.63	4056.47
476.83	3995.77
477.03	3917.21
477.24	3880.34
477.44	3945.32
477.64	3943.27
477.84	3859.12
478.05	3839.76
478.25	3914.60
478.45	3880.16
478.65	3819.83
478.86	3824.30
479.06	3914.79
479.26	3916.83
479.46	3932.66
479.67	3878.48
479.87	3932.10
480.07	3939.17
480.27	4033.75
480.48	3934.52
480.68	4008.06
480.88	4085.70
481.08	4063.17
481.28	4046.04
481.49	4081.79
481.69	4111.76
481.89	4219.37
482.09	4182.88
482.30	4178.04
482.50	4142.30
482.70	4127.77
482.90	4082.90
483.11	4090.91
483.31	4155.89
483.51	4168.36
483.71	4243.58
483.91	4253.07
484.12	4189.96
484.32	4309.86
484.52	4440.55
484.72	4457.68
484.92	4804.91
485.13	4789.64
485.33	4789.45
485.53	4811.80
485.73	4846.05
485.93	4768.23
486.14	4724.66
486.34	4869.88
486.54	4793.92
486.74	4765.06
486.94	4803.98
487.15	4495.29
487.35	4535.69
487.55	4554.12
487.75	4483.19
487.95	4571.44
488.16	4598.62
488.36	4642.00
488.56	4534.20
488.76	4547.05
488.96	4596.95
489.17	4636.97
489.37	4691.90
489.57	4750.92
489.77	4755.94
489.97	4752.22
490.17	4693.01
490.38	4713.87
490.58	4723.36
490.78	4762.64
490.98	4770.28
491.18	4712.75
491.38	4673.46
491.59	4688.17
491.79	4648.52
491.99	4677.19
492.19	4804.72
492.39	4778.10
492.59	4805.65
492.80	4788.90
493.00	4801.93
493.20	4869.88
493.40	4908.79
493.60	4925.55
493.80	4941.00
494.00	5148.41
494.21	5158.09
494.41	5133.70
494.61	5208.36
494.81	5208.54
495.01	5285.99
495.21	5289.16
495.41	5303.87
495.62	5280.41
495.82	5263.47
496.02	5272.22
496.22	5138.17
496.42	5110.99
496.62	5174.47
496.82	5133.51
497.02	5187.32
497.23	5146.92
497.43	5224.37
497.63	5228.46
497.83	5218.04
498.03	5223.44
498.23	5259.74
498.43	5243.17
498.63	5330.12
498.84	5298.47
499.04	5333.84
499.24	5364.00
499.44	5560.05
499.64	5598.96
499.84	5575.32
500.04	5696.15
500.24	5762.61
500.44	5805.06
500.65	5877.48
500.85	5902.80
501.05	5894.80
501.25	5973.18
501.45	5937.99
501.65	5829.26
501.85	5852.72
502.05	5935.94
502.25	5872.64
502.45	5990.87
502.65	5934.64
502.86	5950.65
503.06	5919.56
503.26	6045.98
503.46	6009.67
503.66	6048.77
503.86	6069.62
504.06	6111.51
504.26	6115.05
504.46	6137.20
504.66	6027.17
504.86	6055.84
505.06	6157.12
505.26	6328.04
505.47	6243.14
505.67	6344.23
505.87	6368.81
506.07	6361.55
506.27	6332.13
506.47	6289.13
506.67	6315.38
506.87	6328.04
507.07	6342.37
507.27	6220.05
507.47	6088.24
507.67	6146.89
507.87	6170.16
508.07	6160.48
508.27	6210.56
508.47	6223.78
508.67	6244.26
508.87	6306.25
509.08	6319.10
509.28	6412.56
509.48	6516.26
509.68	6558.15
509.88	6589.43
510.08	6510.68
510.28	6554.43
510.48	6584.41
510.68	6584.41
510.88	6614.57
511.08	6609.17
511.28	6626.85
511.48	6638.77
511.68	6557.04
511.88	6548.85
512.08	6538.42
512.28	6569.88
512.48	6641.56
512.68	6661.30
512.88	6657.57
513.08	6656.27
513.28	6685.50
513.48	6773.56
513.68	6756.99
513.88	6847.48
514.08	6862.00
514.28	6883.04
514.48	7004.98
514.68	7037.01
514.88	7050.97
515.08	7047.06
515.28	7102.36
515.48	7114.46
515.68	7092.67
515.88	7160.82
516.08	7122.84
516.28	7155.04
516.48	7124.32
516.68	7057.67
516.88	7023.97
517.08	7038.68
517.28	7139.59
517.48	7208.11
517.68	7216.30
517.88	7181.67
518.08	7140.71
518.28	7206.24
518.48	7243.85
518.68	7344.95
518.88	7303.06
519.08	7327.26
519.28	7370.83
519.48	7324.47
519.68	7283.14
519.88	7264.33
520.08	7290.95
520.28	7282.02
520.48	7236.22
520.68	7188.37
520.88	7217.79
521.08	7241.43
521.28	7187.07
521.47	7099.94
521.67	7085.41
521.87	7130.28
522.07	7224.30
522.27	7230.07
522.47	7205.68
522.67	7194.51
522.87	7238.27
523.07	7169.75
523.27	7141.45
523.47	7192.65
523.67	7192.65
523.87	7186.88
524.07	7182.60
524.27	7113.34
524.47	7135.68
524.67	7198.61
524.87	7237.52
525.06	7233.24
525.26	7178.69
525.46	7317.95
525.66	7247.95
525.86	7242.73
526.06	7206.62
526.26	7136.05
526.46	7101.42
526.66	7103.10
526.86	7088.02
527.06	7050.41
527.26	7074.06
527.46	7074.99
527.65	6959.00
527.85	6999.21
528.05	7007.40
528.25	7110.55
528.45	7109.62
528.65	7147.22
528.85	7109.43
529.05	7125.07
529.25	7180.18
529.45	7109.99
529.65	7172.92
529.84	7183.16
530.04	7186.69
530.24	7186.88
530.44	7091.56
530.64	7114.08
530.84	7631.29
531.04	7678.58
531.24	7804.06
531.44	7755.29
531.63	7729.59
531.83	7713.02
532.03	7817.47
532.23	7797.92
532.43	7823.99
532.63	7820.08
532.83	7778.74
533.03	7220.21
533.22	7171.80
533.42	6977.80
533.62	6972.78
533.82	7023.97
534.02	6941.31
534.22	6795.72
534.42	6778.40
534.62	6754.76
534.81	6725.53
535.01	6751.59
535.21	6788.09
535.41	6759.97
535.61	6739.87
535.81	6693.88
536.01	6677.12
536.20	6720.32
536.40	6688.29
536.60	6800.19
536.80	6759.97
537.00	6754.57
537.20	6690.16
537.39	6721.25
537.59	6823.27
537.79	6874.29
537.99	6850.64
538.19	6897.19
538.39	6962.91
538.59	6962.35
538.78	6853.62
538.98	6854.37
539.18	6847.48
539.38	6867.40
539.58	6699.28
539.78	6591.29
539.97	6550.89
540.17	6620.90
540.37	6522.04
540.57	6451.85
540.77	6428.57
540.96	6340.88
541.16	6406.79
541.36	6466.00
541.56	6454.83
541.76	6597.07
541.96	6595.76
542.15	6558.53
542.35	6554.24
542.55	6532.46
542.75	6419.08
542.95	6533.77
543.14	6564.11
543.34	6391.90
543.54	6270.88
543.74	6206.83
543.94	6103.13
544.13	6022.33
544.33	5988.26
544.53	5897.59
544.73	5855.33
544.93	5862.59
545.12	5801.15
545.32	5855.89
545.52	5913.98
545.72	5904.29
545.91	5926.64
546.11	5956.24
546.31	5970.20
546.51	5972.06
546.71	5942.27
546.90	5898.89
547.10	5987.89
547.30	5987.33
547.50	5854.58
547.69	5860.73
547.89	5882.51
548.09	5850.67
548.29	5781.79
548.49	5830.94
548.68	5797.80
548.88	5766.52
549.08	5839.69
549.28	5715.51
549.47	5635.08
549.67	5608.08
549.87	5573.64
550.07	5523.93
550.26	5527.28
550.46	5590.40
550.66	5505.31
550.86	5488.18
551.05	5497.87
551.25	5409.99
551.45	5430.28
551.65	5369.40
551.84	5382.99
552.04	5350.41
552.24	5430.28
552.44	5403.47
552.63	5262.72
552.83	5335.52
553.03	5369.03
553.22	5345.01
553.42	5320.25
553.62	5262.16
553.82	5367.73
554.01	5329.19
554.21	5251.55
554.41	5131.65
554.61	5117.50
554.80	5137.05
555.00	4989.78
555.20	4905.07
555.39	4898.56
555.59	4971.16
555.79	5042.29
555.99	4887.94
556.18	4939.89
556.38	4970.23
556.58	4971.35
556.77	5003.19
556.97	5036.89
557.17	5102.05
557.37	5079.33
557.56	5190.67
557.76	5148.22
557.96	5184.15
558.15	5192.72
558.35	5180.06
558.55	5239.45
558.74	5319.51
558.94	5386.53
559.14	5350.41
559.33	5321.18
559.53	5354.88
559.73	5193.28
559.93	5159.58
560.12	5023.67
560.32	4984.76
560.52	4909.17
560.71	4852.20
560.91	4765.62
561.11	4652.80
561.30	4645.17
561.50	4587.26
561.70	4692.45
561.89	4696.92
562.09	4997.60
562.29	5042.84
562.48	5066.30
562.68	5166.84
562.88	5100.19
563.07	5093.11
563.27	5046.75
563.47	5015.48
563.66	5014.73
563.86	4879.19
564.06	4852.01
564.25	4547.42
564.45	4604.02
564.64	4594.34
564.84	4511.49
565.04	4594.15
565.23	4620.22
565.43	4620.03
565.63	4599.37
565.82	4632.69
566.02	4700.46
566.22	4748.49
566.41	4668.25
566.61	4529.92
566.81	4555.80
567.00	4559.15
567.20	4530.29
567.39	4497.15
567.59	4487.29
567.79	4519.31
567.98	4471.83
568.18	4357.33
568.38	4297.57
568.57	4316.75
568.77	4320.84
568.96	4285.47
569.16	4190.70
569.36	4211.74
569.55	4137.83
569.75	4153.84
569.94	4111.76
570.14	4236.13
570.34	4260.89
570.53	4252.70
570.73	4285.84
570.92	4282.49
571.12	4321.59
571.32	4381.91
571.51	4365.90
571.71	4415.23
571.90	4442.60
572.10	4445.21
572.30	4321.21
572.49	4274.86
572.69	4274.86
572.88	4287.33
573.08	4266.48
573.28	4214.35
573.47	4206.34
573.67	4109.34
573.86	4131.31
574.06	4041.95
574.26	4006.76
574.45	3969.52
574.65	3967.47
574.84	3977.16
575.04	3913.30
575.23	3896.17
575.43	3888.91
575.63	3859.30
575.82	3947.74
576.02	3934.89
576.21	3979.20
576.41	3957.79
576.60	4007.69
576.80	4026.31
576.99	4071.18
577.19	4045.30
577.39	4059.07
577.58	4044.74
577.78	4037.66
577.97	3944.95
578.17	3854.84
578.36	3805.87
578.56	3834.73
578.75	3765.84
578.95	3764.91
579.15	3707.75
579.34	3831.19
579.54	3779.81
579.73	3870.85
579.93	3929.12
580.12	3973.80
580.32	4029.66
580.51	4097.24
580.71	4099.29
580.90	4154.21
581.10	4153.09
581.29	4166.31
581.49	4217.33
581.68	4430.87
581.88	4316.19
582.07	4275.60
582.27	4250.65
582.47	4248.79
582.66	4192.94
582.86	4216.77
583.05	4208.58
583.25	4158.31
583.44	4150.12
583.64	4046.97
583.83	3854.84
584.03	3886.30
584.22	3848.32
584.42	3846.83
584.61	3803.64
584.81	3802.33
585.00	3773.85
585.20	3791.72
585.39	3886.30
585.59	3878.85
585.78	3802.15
585.98	3890.02
586.17	3928.00
586.37	4030.96
586.56	4056.10
586.76	4137.27
586.95	4090.54
587.15	4081.97
587.34	4021.09
587.54	3960.96
587.73	3923.35
587.92	4018.30
588.12	3982.18
588.31	3935.45
588.51	3843.85
588.70	3814.43
588.90	3739.59
589.09	3789.86
589.29	3808.48
589.48	3839.38
589.68	3814.62
589.87	3873.45
590.07	3914.79
590.26	3923.54
590.46	3936.94
590.65	3963.38
590.84	3972.31
591.04	3990.37
591.23	3925.40
591.43	3901.94
591.62	3886.67
591.82	3977.90
592.01	3946.81
592.21	3952.21
592.40	3871.59
592.59	3809.59
592.79	3749.27
592.98	3863.03
593.18	3861.54
593.37	3860.42
593.57	3877.74
593.76	3853.53
593.96	3762.12
594.15	3749.64
594.34	3657.11
594.54	3673.50
594.73	3690.07
594.93	3746.11
595.12	3602.00
595.32	3675.55
595.51	3726.19
595.70	3782.23
595.90	3786.14
596.09	3837.52
596.29	3815.92
596.48	3797.31
596.67	3790.23
596.87	3821.70
597.06	3945.32
597.26	3957.79
597.45	3814.06
597.65	3804.38
597.84	3714.64
598.03	3738.29
598.23	3692.49
598.42	3792.47
598.62	3769.94
598.81	3789.86
599.00	3765.28
599.20	3662.51
599.39	3689.69
599.58	3723.58
599.78	3767.52
599.97	3785.39
600.17	3781.11
600.36	3753.18
600.55	3652.09
600.75	3652.46
600.94	3648.18
601.14	3655.81
601.33	3600.33
601.52	3573.15
601.72	3554.53
601.91	3523.81
602.10	3461.07
602.30	3476.15
602.49	3539.82
602.69	3581.15
602.88	3598.28
603.07	3593.63
603.27	3620.81
603.46	3653.39
603.65	3625.84
603.85	3672.94
604.04	3658.79
604.23	3689.51
604.43	3635.52
604.62	3611.50
604.82	3583.57
605.01	3600.89
605.20	3561.23
605.40	3531.26
605.59	3497.37
605.78	3566.63
605.98	3539.08
606.17	3490.67
606.36	3584.32
606.56	3663.26
606.75	3643.52
606.94	3632.35
607.14	3568.31
607.33	3633.47
607.52	3702.17
607.72	3833.05
607.91	3752.62
608.10	3754.67
608.30	3793.40
608.49	3783.72
608.68	3802.71
608.88	3895.05
609.07	3897.47
609.26	3899.52
609.46	3884.07
609.65	3965.98
609.84	3784.65
610.03	3847.57
610.23	3878.11
610.42	3890.58
610.61	3832.49
610.81	3723.21
611.00	3637.94
611.19	3618.95
611.39	3643.15
611.58	3655.44
611.77	3519.53
611.97	3553.41
612.16	3529.39
612.35	3482.85
612.54	3509.10
612.74	3498.49
612.93	3542.61
613.12	3581.52
613.32	3590.09
613.51	3596.42
613.70	3605.17
613.89	3783.72
614.09	3781.67
614.28	3777.57
614.47	3773.66
614.67	3736.43
614.86	3759.51
615.05	3725.26
615.24	3665.68
615.44	3677.22
615.63	3713.90
615.82	3837.52
616.01	3623.42
616.21	3607.03
616.40	3566.26
616.59	3626.39
616.78	3612.80
616.98	3549.50
617.17	3580.04
617.36	3642.03
617.56	3720.23
617.75	3649.85
617.94	3521.20
618.13	3599.96
618.33	3616.15
618.52	3670.33
618.71	3632.91
618.90	3639.61
619.10	3685.41
619.29	3636.08
619.48	3571.10
619.67	3552.11
619.86	3635.33
620.06	3618.39
620.25	3629.93
620.44	3669.77
620.63	3679.08
620.83	3705.52
621.02	3758.95
621.21	3825.98
621.40	3872.34
621.60	3865.08
621.79	3801.03
621.98	3753.37
622.17	3722.28
622.36	3643.15
622.56	3621.93
622.75	3592.88
622.94	3653.58
623.13	3603.31
623.33	3526.79
623.52	3540.75
623.71	3513.20
623.90	3586.74
624.09	3572.59
624.29	3614.85
624.48	3582.08
624.67	3550.62
624.86	3548.20
625.05	3555.83
625.25	3582.64
625.44	3579.10
625.63	3627.70
625.82	3661.77
626.01	4221.79
626.21	4218.82
626.40	4186.23
626.59	4280.07
626.78	4368.69
626.97	4490.82
627.16	4398.85
627.36	4426.96
627.55	4396.62
627.74	4350.44
627.93	4398.48
628.12	3902.50
628.31	3955.00
628.51	3959.28
628.70	3982.93
628.89	3885.18
629.08	3846.83
629.27	3842.36
629.47	3829.89
629.66	3823.19
629.85	3942.53
630.04	3896.35
630.23	3806.06
630.42	3739.96
630.61	3739.96
630.81	3650.04
631.00	3713.34
631.19	3621.93
631.38	3673.31
631.57	3632.72
631.76	3667.35
631.96	3632.91
632.15	3617.83
632.34	3660.09
632.53	3730.84
632.72	3794.14
632.91	3776.64
633.10	3764.73
633.29	3846.27
633.49	3772.92
633.68	3784.65
633.87	3845.90
634.06	3720.04
634.25	3756.16
634.44	3782.04
634.63	3743.13
634.83	3647.99
635.02	3639.05
635.21	3612.99
635.40	3634.96
635.59	3637.01
635.78	3684.85
635.97	3662.70
636.16	3723.58
636.35	3734.75
636.55	3640.73
636.74	3675.36
636.93	3719.11
637.12	3727.30
637.31	3758.95
637.50	3641.29
637.69	3618.95
637.88	3551.92
638.07	3584.13
638.26	3533.49
638.46	3502.96
638.65	3546.71
638.84	3517.85
639.03	3556.58
639.22	3579.66
639.41	3555.09
639.60	3602.94
639.79	3645.94
639.98	3616.71
640.17	3548.57
640.36	3559.56
640.56	3532.56
640.75	3488.62
640.94	3445.43
641.13	3421.04
641.32	3415.27
641.51	3430.35
641.70	3393.86
641.89	3360.34
642.08	3502.77
642.27	3550.81
642.46	3623.79
642.65	3680.76
642.84	3756.35
643.03	3806.80
643.22	3811.08
643.42	3852.97
643.61	3791.53
643.80	3854.09
643.99	3886.11
644.18	3797.86
644.37	3762.86
644.56	3674.99
644.75	3643.15
644.94	3555.27
645.13	3526.79
645.32	3589.72
645.51	3628.81
645.70	3664.93
645.89	3653.02
646.08	3659.35
646.27	3736.98
646.46	3748.90
646.65	3763.79
646.84	3822.81
647.03	3840.69
647.22	3818.34
647.41	3770.68
647.60	3743.87
647.79	3827.28
647.98	3821.32
648.17	3838.27
648.36	3798.05
648.56	3841.99
648.75	3926.33
648.94	3860.23
649.13	3844.60
649.32	3865.08
649.51	3802.71
649.70	3715.20
649.89	3686.16
650.08	3641.29
650.27	3708.69
650.46	3657.86
650.65	3599.40
650.84	3571.10
651.03	3612.99
651.22	3676.10
651.41	3720.97
651.60	3754.30
651.79	3783.53
651.98	3732.89
652.17	3835.47
652.36	3705.52
652.55	3668.10
652.74	3612.99
652.92	3643.71
653.11	3658.42
653.30	3634.40
653.49	3560.11
653.68	3521.95
653.87	3565.14
654.06	3575.01
654.25	3440.59
654.44	3463.86
654.63	3562.16
654.82	3607.40
655.01	3491.23
655.20	3520.64
655.39	3495.70
655.58	3507.43
655.77	3537.96
655.96	3553.41
656.15	3568.49
656.34	3630.86
656.53	3622.86
656.72	3658.04
656.91	3633.47
657.10	3686.34
657.29	3677.03
657.48	3726.93
657.67	3754.49
657.86	3750.20
658.04	3715.20
658.23	3735.50
658.42	3739.03
658.61	3745.18
658.80	3620.99
658.99	3603.87
659.18	3562.53
659.37	3496.44
659.56	3395.35
659.75	3421.97
659.94	3451.20
660.13	3464.98
660.32	3396.84
660.51	3351.22
660.69	3360.72
660.88	3373.94
661.07	3360.16
661.26	3401.12
661.45	3469.45
661.64	3492.90
661.83	3667.91
662.02	3588.79
662.21	3576.87
662.40	3619.69
662.59	3640.17
662.78	3680.94
662.96	3709.99
663.15	3740.34
663.34	3731.96
663.53	3715.57
663.72	3769.19
663.91	3579.85
664.10	3577.99
664.29	3519.53
664.48	3557.51
664.66	3614.85
664.85	3577.62
665.04	3541.87
665.23	3552.29
665.42	3550.81
665.61	3538.15
665.80	3599.21
665.99	3549.32
666.18	3672.75
666.36	3712.41
666.55	3629.93
666.74	3595.67
666.93	3682.81
667.12	3745.36
667.31	3757.65
667.50	3747.22
667.69	3759.88
667.87	3683.36
668.06	3709.62
668.25	3608.33
668.44	3598.84
668.63	3610.57
668.82	3614.66
669.01	3516.36
669.19	3467.96
669.38	3458.27
669.57	3480.43
669.76	3492.72
669.95	3530.70
670.14	3615.97
670.32	3617.64
670.51	3609.82
670.70	3599.21
670.89	3636.08
671.08	3704.22
671.27	3706.26
671.46	3738.29
671.64	3720.04
671.83	3778.87
672.02	3781.30
672.21	3736.24
672.40	3831.94
672.59	3824.12
672.77	3933.96
672.96	3898.59
673.15	3800.47
673.34	3802.71
673.53	3806.99
673.71	3777.76
673.90	3673.13
674.09	3576.87
674.28	3528.46
674.47	3426.07
674.66	3481.73
674.84	3462.00
675.03	3430.53
675.22	3494.58
675.41	3480.99
675.60	3478.94
675.78	3495.14
675.97	3520.83
676.16	3550.81
676.35	3535.72
676.54	3684.30
676.72	3627.14
676.91	3598.84
677.10	3589.34
677.29	3553.23
677.47	3680.01
677.66	3690.44
677.85	3663.63
678.04	3618.57
678.23	3679.27
678.41	3694.72
678.60	3534.24
678.79	3562.35
678.98	3605.91
679.17	3611.87
679.35	3779.81
679.54	3697.70
679.73	3616.34
679.92	3641.29
680.10	3744.25
680.29	3670.33
680.48	3713.34
680.67	3782.60
680.85	3731.59
681.04	3806.06
681.23	3896.17
681.42	3729.35
681.60	3689.32
681.79	3713.71
681.98	3715.02
682.17	3611.69
682.35	3672.01
682.54	3668.66
682.73	3661.77
682.92	3723.95
683.10	3538.70
683.29	3507.24
683.48	3529.02
683.67	3570.91
683.85	3600.89
684.04	3647.80
684.23	3662.33
684.42	3636.26
684.60	3589.72
684.79	3570.73
684.98	3579.29
685.16	3596.05
685.35	3538.89
685.54	3634.59
685.73	3688.95
685.91	3629.19
686.10	3532.19
686.29	3525.11
686.48	3477.64
686.66	3514.50
686.85	3508.36
687.04	3592.51
687.22	3598.84
687.41	3569.24
687.60	3448.22
687.78	3367.23
687.97	3411.17
688.16	3437.79
688.35	3459.95
688.53	3484.71
688.72	3497.93
688.91	3467.58
689.09	3410.24
689.28	3437.42
689.47	3484.90
689.65	3529.58
689.84	3491.04
690.03	3552.85
690.22	3627.51
690.40	3632.17
690.59	3628.26
690.78	3585.43
690.96	3603.87
691.15	3579.48
691.34	3542.06
691.52	3595.30
691.71	3568.31
691.90	3538.89
692.08	3497.00
692.27	3464.98
692.46	3450.64
692.64	3450.08
692.83	3507.43
693.02	3554.53
693.20	3490.30
693.39	3563.28
693.58	3484.53
693.76	3480.24
693.95	3593.25
694.14	3560.67
694.32	3546.15
694.51	3562.53
694.70	3588.79
694.88	3545.96
695.07	3521.95
695.25	3663.82
695.44	3639.99
695.63	3641.10
695.81	3652.46
696.00	3640.17
696.19	3677.41
696.37	3760.07
696.56	3824.86
696.75	3788.37
696.93	3774.59
697.12	3766.96
697.30	3692.12
697.49	3673.68
697.68	3695.65
697.86	3692.86
698.05	3651.34
698.24	3653.39
698.42	3565.51
698.61	3523.06
698.79	3480.99
698.98	3536.28
699.17	3965.98
699.35	3936.57
699.54	3887.60
699.72	3874.38
699.91	3942.71
700.10	3961.14
700.28	3892.63
700.47	3923.16
700.65	3878.11
700.84	3883.13
701.03	3907.15
701.21	3517.29
701.40	3572.96
701.58	3577.24
701.77	3745.55
701.96	3711.29
702.14	3695.47
702.33	3738.47
702.51	3688.39
702.70	3679.27
702.89	3709.99
703.07	3594.74
703.26	3582.08
703.44	3682.43
703.63	3760.82
703.81	3665.49
704.00	3600.52
704.19	3634.77
704.37	3636.63
704.56	3647.43
704.74	3619.69
704.93	3645.20
705.11	3684.85
705.30	3659.53
705.49	3464.79
705.67	3400.56
705.86	3409.31
706.04	3469.26
706.23	3373.00
706.41	3403.17
706.60	3591.39
706.78	3603.68
706.97	3616.15
707.16	3621.74
707.34	3600.70
707.53	3654.51
707.71	3674.24
707.90	3694.91
708.08	3643.52
708.27	3651.34
708.45	3580.41
708.64	3412.85
708.82	3431.65
709.01	3388.27
709.19	3352.15
709.38	3364.25
709.56	3384.73
709.75	3395.90
709.94	3416.57
710.12	3396.28
710.31	3493.46
710.49	3606.66
710.68	3629.19
710.86	3589.16
711.05	3655.25
711.23	3651.16
711.42	3707.94
711.60	3673.68
711.79	3701.80
711.97	3562.16
712.16	3698.82
712.34	3721.35
712.53	3667.54
712.71	3700.49
712.90	3716.88
713.08	3830.45
713.27	3910.50
713.45	3873.27
713.64	3885.18
713.82	3905.10
714.01	3915.53
714.19	3896.91
714.38	3948.11
714.56	4425.29
714.75	4335.18
714.93	4334.62
715.12	4169.29
715.30	4190.89
715.49	4178.79
715.67	4182.51
715.85	4092.59
716.04	4125.54
716.22	4105.06
716.41	3930.80
716.59	3439.10
716.78	3464.79
716.96	3532.93
717.15	3530.51
717.33	3460.14
717.52	3510.22
717.70	3507.05
717.89	4288.63
718.07	4281.74
718.25	4316.93
718.44	4426.78
718.62	4482.26
718.81	4490.08
718.99	4449.68
719.18	4480.58
719.36	4503.30
719.55	4462.90
719.73	4516.52
719.92	3801.59
720.10	3722.83
720.28	3611.69
720.47	3562.16
720.65	3466.84
720.84	3405.77
721.02	3501.65
721.21	3475.78
721.39	3510.78
721.57	3482.66
721.76	3394.79
721.94	3331.30
722.13	3430.16
722.31	3459.58
722.50	3421.41
722.68	3582.64
722.86	3710.73
723.05	3622.11
723.23	3681.50
723.42	3648.18
723.60	3675.92
723.78	3644.27
723.97	3671.08
724.15	3584.88
724.34	3572.22
724.52	3599.77
724.70	3445.43
724.89	3368.35
725.07	3339.31
725.26	3265.77
725.44	3368.35
725.62	3349.73
725.81	3413.59
725.99	3370.58
726.18	3424.58
726.36	3426.81
726.54	3452.13
726.73	3446.92
726.91	3487.88
727.10	3538.33
727.28	3546.52
727.46	3448.97
727.65	3418.62
727.83	3471.49
728.01	3509.29
728.20	3518.97
728.38	3518.78
728.57	3491.97
728.75	3502.96
728.93	3433.89
729.12	3373.38
729.30	3382.50
729.48	3338.56
729.67	3332.98
729.85	3277.68
730.03	3267.63
730.22	3279.92
730.40	3314.92
730.58	3255.15
730.77	3254.41
730.95	3338.75
731.13	3318.83
731.32	3309.33
731.50	3333.53
731.69	3372.63
731.87	3407.08
732.05	3407.63
732.24	3373.94
732.42	3320.50
732.60	3394.04
732.79	3374.31
732.97	3283.08
733.15	3296.67
733.34	3267.44
733.52	3253.85
733.70	3236.35
733.89	3165.97
734.07	3247.33
734.25	3237.09
734.43	3239.33
734.62	3225.55
734.80	3261.11
734.98	3333.72
735.17	3396.84
735.35	3447.48
735.53	3555.09
735.72	3612.06
735.90	3668.66
736.08	3579.10
736.27	3540.19
736.45	3580.59
736.63	3556.39
736.81	3510.40
737.00	3478.75
737.18	3494.58
737.36	3499.42
737.55	3416.94
737.73	3390.32
737.91	3311.75
738.10	3362.21
738.28	3424.58
738.46	3427.55
738.64	3577.43
738.83	3593.81
739.01	3577.06
739.19	3529.77
739.38	3517.85
739.56	3483.41
739.74	3469.82
739.92	3629.75
740.11	3657.49
740.29	3650.23
740.47	3609.45
740.65	3473.73
740.84	3591.39
741.02	3680.94
741.20	3751.32
741.38	3785.76
741.57	3829.14
741.75	3911.81
741.93	3747.41
742.11	3660.84
742.30	3732.52
742.48	3770.87
742.66	3767.52
742.84	3674.06
743.03	3575.38
743.21	3499.61
743.39	3510.96
743.57	3463.30
743.76	3351.97
743.94	3500.72
744.12	3576.31
744.30	3506.68
744.49	3446.92
744.67	3478.57
744.85	3503.70
745.03	3545.03
745.22	3540.94
745.40	3567.19
745.58	3607.96
745.76	3652.27
745.94	3509.29
746.13	3454.18
746.31	3549.87
746.49	3605.54
746.67	3559.37
746.86	3561.23
747.04	3516.73
747.22	3499.79
747.40	3431.65
747.58	3392.93
747.77	3361.09
747.95	3375.05
748.13	3347.68
748.31	3226.30
748.49	3210.84
748.68	3248.64
748.86	3198.74
749.04	3214.94
749.22	3210.84
749.40	3222.39
749.59	3294.62
749.77	3323.48
749.95	3355.69
750.13	3491.41
750.31	3547.08
750.49	3540.94
750.68	3527.35
750.86	3577.80
751.04	3539.08
751.22	3643.15
751.40	3591.76
751.59	3507.05
751.77	3494.58
751.95	3446.17
752.13	3333.16
752.31	3276.94
752.49	3276.01
752.68	3283.27
752.86	3253.85
753.04	3330.56
753.22	3318.27
753.40	3364.63
753.58	3375.42
753.76	3423.09
753.95	3549.87
754.13	3528.65
754.31	3529.77
754.49	3600.89
754.67	3596.79
754.85	3654.51
755.04	3604.80
755.22	3549.50
755.40	3588.79
755.58	3567.75
755.76	3552.48
755.94	3442.45
756.12	3508.92
756.30	3602.56
756.49	3525.49
756.67	3508.73
756.85	3426.07
757.03	3444.68
757.21	3428.30
757.39	3329.44
757.57	3354.57
757.75	3309.33
757.94	3392.37
758.12	3396.46
758.30	3344.15
758.48	3317.15
758.66	3350.29
758.84	3400.19
759.02	3354.76
759.20	3397.39
759.38	3466.65
759.57	3437.05
759.75	3642.59
759.93	3562.53
760.11	3545.78
760.29	3516.92
760.47	3512.45
760.65	3490.11
760.83	3472.42
761.01	3494.95
761.19	3466.47
761.38	3463.30
761.56	3640.92
761.74	3512.64
761.92	3494.95
762.10	3545.41
762.28	3550.62
762.46	3584.50
762.64	3563.47
762.82	3541.31
763.00	3616.15
763.18	3612.06
763.36	3632.17
763.54	3487.69
763.73	3457.34
763.91	3568.31
764.09	3535.72
764.27	3506.87
764.45	3497.19
764.63	3550.43
764.81	3554.16
764.99	3526.04
765.17	3580.59
765.35	3548.39
765.53	3532.37
765.71	3510.96
765.89	3421.97
766.07	3401.12
766.25	3382.13
766.43	3404.47
766.61	3362.02
766.79	3367.79
766.98	3339.49
767.16	3329.62
767.34	3309.70
767.52	3298.91
767.70	3286.99
767.88	3283.45
768.06	3229.09
768.24	3282.15
768.42	3238.02
768.60	3208.24
768.78	3238.77
768.96	3191.67
769.14	3157.60
769.32	3130.79
769.50	3189.25
769.68	3233.00
769.86	3258.32
770.04	3294.25
770.22	3307.28
770.40	3308.96
770.58	3376.91
770.76	3322.74
770.94	3421.22
771.12	3425.69
771.30	3530.33
771.48	3530.14
771.66	3473.91
771.84	3436.86
772.02	3414.52
772.20	3443.38
772.38	3552.85
772.56	3575.01
772.74	3636.63
772.92	3555.09
773.10	3543.36
773.28	3551.18
773.46	3508.73
773.64	3498.30
773.82	3573.52
774.00	3608.52
774.18	3547.83
774.36	3453.43
774.54	3411.36
774.72	3388.64
774.90	3421.97
775.08	3433.14
775.26	3394.42
775.44	3469.45
775.62	3495.14
775.80	3456.41
775.97	3391.99
776.15	3402.42
776.33	3423.09
776.51	3431.28
776.69	3457.53
776.87	3490.30
777.05	3468.89
777.23	3456.79
777.41	3368.54
777.59	3322.92
777.77	3280.47
777.95	3421.97
778.13	3456.04
778.31	3489.37
778.49	3520.83
778.67	3450.08
778.85	3392.18
779.03	3382.69
779.21	3367.42
779.38	3501.28
779.56	3584.88
779.74	3606.66
779.92	3492.35
780.10	3513.94
780.28	3546.34
780.46	3472.80
780.64	3571.47
780.82	3573.71
781.00	3573.33
781.18	3532.00
781.36	3422.90
781.53	3374.49
781.71	3393.48
781.89	3418.06
782.07	3309.15
782.25	3273.21
782.43	3313.24
782.61	3242.68
782.79	3352.34
782.97	3355.69
783.15	3379.71
783.33	3987.58
783.50	3968.03
783.68	3927.07
783.86	3951.65
784.04	4033.38
784.22	4059.26
784.40	4053.67
784.58	4061.12
784.76	3965.61
784.94	3990.93
785.11	3970.64
785.29	3343.77
785.47	3345.08
785.65	3370.03
785.83	3328.51
786.01	3302.44
786.19	3243.42
786.37	3223.88
786.54	3222.01
786.72	3251.80
786.90	3282.71
787.08	3282.71
787.26	3307.66
787.44	3308.40
787.62	3347.31
787.79	3318.64
787.97	3309.33
788.15	3302.82
788.33	3299.09
788.51	3342.84
788.69	3291.27
788.87	3263.35
789.04	3292.20
789.22	3284.94
789.40	3248.64
789.58	3217.17
789.76	3228.72
789.94	3249.57
790.11	3239.51
790.29	3313.99
790.47	3238.77
790.65	3276.01
790.83	3257.20
791.01	3272.65
791.18	3327.58
791.36	3375.24
791.54	3395.90
791.72	3467.96
791.90	3548.94
792.07	3531.26
792.25	3548.01
792.43	3606.29
792.61	3635.70
792.79	3632.54
792.97	3577.80
793.14	3581.90
793.32	3570.17
793.50	3561.60
793.68	3587.48
793.86	3500.72
794.03	3559.56
794.21	3566.44
794.39	3526.97
794.57	3542.06
794.75	3524.93
794.92	3564.77
795.10	3530.70
795.28	3531.44
795.46	3517.85
795.64	3460.69
795.81	3459.02
795.99	3398.88
796.17	3338.19
796.35	3343.22
796.52	3250.68
796.70	3274.14
796.88	3278.61
797.06	3212.52
797.24	3209.35
797.41	3244.54
797.59	3224.81
797.77	3241.75
797.95	3319.57
798.12	3273.96
798.30	3286.43
798.48	3327.95
798.66	3313.80
798.83	3406.52
799.01	3494.77
799.19	3555.83
799.37	3540.94
799.54	3561.60
799.72	3617.64
799.90	3572.59
800.08	3584.13
800.25	3557.32
800.43	3562.53
800.61	3585.25
800.79	3497.93
800.96	3475.22
801.14	3437.98
801.32	3448.41
801.50	3454.18
801.67	3393.67
801.85	3508.54
802.03	3479.31
802.21	3586.18
802.38	3627.14
802.56	3587.48
802.74	3587.48
802.91	3561.42
803.09	3619.13
803.27	3732.33
803.45	3755.60
803.62	3706.26
803.80	3675.55
803.98	3842.73
804.15	3778.13
804.33	3671.64
804.51	3681.50
804.69	3657.11
804.86	3657.67
805.04	3640.17
805.22	3487.13
805.39	3508.73
805.57	3510.96
805.75	3389.95
805.92	3355.69
806.10	3302.07
806.28	3308.21
806.45	3410.61
806.63	3404.84
806.81	3445.61
806.99	3416.01
807.16	3429.79
807.34	3424.39
807.52	3443.38
807.69	3587.67
807.87	3460.14
808.05	3573.71
808.22	3585.06
808.40	3556.39
808.58	3546.34
808.75	3481.36
808.93	3422.90
809.11	3420.67
809.28	3366.12
809.46	3371.33
809.64	3287.73
809.81	3290.53
809.99	3216.80
810.17	3272.28
810.34	3206.37
810.52	3257.57
810.70	3298.16
810.87	3307.10
811.05	3355.32
811.22	3318.83
811.40	3309.89
811.58	3273.58
811.75	3297.42
811.93	3326.27
812.11	3376.91
812.28	3384.73
812.46	3342.66
812.64	3314.54
812.81	3373.94
812.99	3287.36
813.16	3307.66
813.34	3356.81
813.52	3381.38
813.69	3388.27
813.87	3308.21
814.05	3274.70
814.22	3252.36
814.40	3257.20
814.57	3315.85
814.75	3288.48
814.93	3348.62
815.10	3350.29
815.28	3316.41
815.46	3283.45
815.63	3288.29
815.81	3376.91
815.98	3341.54
816.16	3367.98
816.34	3356.99
816.51	3288.48
816.69	3254.97
816.86	3233.18
817.04	3246.03
817.21	3208.79
817.39	3221.45
817.57	3227.23
817.74	3199.30
817.92	3202.84
818.09	3214.19
818.27	3240.63
818.45	3260.37
818.62	3290.34
818.80	3253.29
818.97	3285.13
819.15	3297.79
819.32	3380.64
819.50	3384.92
819.68	3361.65
819.85	3456.04
820.03	3470.56
820.20	3546.15
820.38	3552.29
820.55	3670.89
820.73	3696.77
820.91	3704.59
821.08	3826.72
821.26	3810.90
821.43	3759.88
821.61	3750.02
821.78	3657.49
821.96	3603.68
822.13	3565.70
822.31	3556.39
822.48	3459.95
822.66	3480.06
822.84	3529.77
823.01	3444.12
823.19	3358.85
823.36	3394.04
823.54	3412.47
823.71	3414.34
823.89	3524.37
824.06	3445.43
824.24	3456.23
824.41	3413.96
824.59	3356.81
824.76	3231.88
824.94	3166.90
825.11	3192.41
825.29	3168.21
825.46	3133.95
825.64	3152.38
825.81	3073.07
825.99	3081.08
826.16	3090.38
826.34	3104.91
826.52	3150.52
826.69	3173.05
826.87	3250.31
827.04	3239.89
827.22	3259.44
827.39	3252.73
827.57	3249.94
827.74	3224.99
827.91	3237.47
828.09	3241.19
828.26	3262.97
828.44	3319.38
828.61	3348.43
828.79	3346.01
828.96	3343.22
829.14	3373.38
829.31	3430.35
829.49	3449.15
829.66	3525.67
829.84	3576.31
830.01	3562.91
830.19	3603.87
830.36	3571.10
830.54	3559.37
830.71	3517.85
830.89	3541.68
831.06	3551.55
831.24	3510.59
831.41	3502.40
831.58	3390.32
831.76	3359.41
831.93	3368.91
832.11	3379.33
832.28	3347.87
832.46	3309.33
832.63	3344.71
832.81	3339.31
832.98	3272.28
833.16	3319.57
833.33	3286.25
833.50	3375.05
833.68	3416.76
833.85	3445.99
834.03	3433.14
834.20	3403.17
834.38	3526.04
834.55	3535.17
834.72	3580.59
834.90	3697.70
835.07	3766.03
835.25	3782.41
835.42	3729.16
835.60	3689.14
835.77	3674.80
835.94	3633.47
836.12	3689.32
836.29	3567.19
836.47	3507.61
836.64	3414.15
836.81	3367.23
836.99	3252.55
837.16	3254.04
837.34	3265.21
837.51	3212.33
837.68	3195.02
837.86	3214.57
838.03	3192.60
838.21	3226.85
838.38	3220.15
838.55	3217.36
838.73	3144.94
838.90	3145.12
839.08	3116.26
839.25	3113.10
839.42	3168.95
839.60	3160.39
839.77	3082.38
839.95	3084.24
840.12	3063.20
840.29	3080.89
840.47	3101.56
840.64	3155.36
840.81	3175.47
840.99	3215.31
841.16	3267.25
841.34	3249.01
841.51	3267.25
841.68	3355.32
841.86	3349.55
842.03	3318.08
842.20	3313.61
842.38	3334.47
842.55	3354.95
842.72	3382.13
842.90	3378.22
843.07	3340.98
843.24	3348.24
843.42	3331.11
843.59	3339.86
843.77	3402.23
843.94	3440.96
844.11	3448.97
844.29	3440.59
844.46	3374.49
844.63	3394.42
844.81	3336.89
844.98	3382.50
845.15	3395.53
845.33	3396.46
845.50	3357.37
845.67	3264.28
845.85	3289.41
846.02	3302.07
846.19	3261.86
846.37	3322.74
846.54	3331.86
846.71	3335.77
846.88	3297.42
847.06	3237.09
847.23	3372.45
847.40	3363.70
847.58	3417.87
847.75	3385.48
847.92	3376.91
848.10	3421.97
848.27	3411.92
848.44	3437.79
848.62	3443.94
848.79	3424.58
848.96	3486.02
849.13	3363.51
849.31	3354.76
849.48	3348.99
849.65	3402.42
849.83	3464.23
850.00	3490.48
850.17	3709.99
850.34	3618.76
850.52	3624.90
850.69	3699.93
850.86	3679.27
851.04	3723.95
851.21	3730.10
851.38	3726.93
851.55	3673.87
851.73	3627.14
851.90	3648.92
852.07	3386.97
852.24	3444.50
852.42	3418.06
852.59	3366.30
852.76	3349.92
852.93	3277.68
853.11	3311.38
853.28	3254.22
853.45	3243.24
853.62	3332.42
853.80	3300.95
853.97	3335.95
854.14	3239.89
854.31	3257.02
854.49	3240.82
854.66	3267.44
854.83	3291.09
855.00	3336.14
855.18	3464.05
855.35	3470.19
855.52	3372.63
855.69	3367.05
855.87	3373.75
856.04	3388.46
856.21	3398.88
856.38	3401.12
856.56	3559.18
856.73	3576.50
856.90	3530.14
857.07	3413.96
857.24	3513.20
857.42	3539.45
857.59	3521.39
857.76	3618.57
857.93	3720.97
858.10	3696.58
858.28	3711.48
858.45	3563.47
858.62	3529.02
858.79	3550.81
858.96	3618.39
859.14	3534.79
859.31	3542.43
859.48	3564.40
859.65	3435.19
859.82	3395.53
860.00	3416.76
860.17	3369.84
860.34	3345.82
860.51	3345.64
860.68	3277.68
860.86	3250.87
861.03	3242.68
861.20	3219.41
861.37	3184.59
861.54	3191.11
861.71	3142.33
861.89	3258.32
862.06	3309.89
862.23	3526.97
862.40	3567.00
862.57	3579.10
862.74	3593.81
862.92	3601.63
863.09	3659.53
863.26	3662.70
863.43	3631.42
863.60	3665.12
863.77	3550.43
863.95	3590.83
864.12	3371.52
864.29	3396.65
864.46	3383.62
864.63	3358.85
864.80	3381.57
864.97	3278.98
865.15	3298.53
865.32	3321.25
865.49	3305.61
865.66	3332.60
865.83	3300.77
866.00	3355.88
866.17	3320.69
866.35	3372.63
866.52	3392.74
866.69	3383.62
866.86	3349.55
867.03	3353.08
867.20	3399.44
867.37	3355.32
867.54	3416.57
867.72	3346.01
867.89	3295.00
868.06	3239.70
868.23	3199.11
868.40	3176.03
868.57	3164.11
868.74	3222.94
868.91	3238.02
869.08	3173.61
869.26	3181.24
869.43	3128.92
869.60	3204.88
869.77	3191.67
869.94	3220.34
870.11	3197.62
870.28	3175.28
870.45	3138.23
870.62	3173.05
870.79	3186.27
870.96	3177.33
871.14	3229.65
871.31	3207.31
871.48	3244.91
871.65	3244.35
871.82	3252.55
871.99	3277.68
872.16	3310.45
872.33	3386.22
872.50	3329.07
872.67	3264.46
872.84	3268.93
873.01	3220.71
873.18	3203.95
873.35	3184.22
873.53	3187.38
873.70	3196.69
873.87	3161.88
874.04	3175.65
874.21	3177.52
874.38	3258.13
874.55	3255.15
874.72	3306.17
874.89	3304.68
875.06	3319.76
875.23	3233.93
875.40	3309.89
875.57	3315.48
875.74	3357.55
875.91	3319.94
876.08	3257.02
876.25	3163.74
876.42	3281.96
876.59	3212.52
876.76	3231.69
876.93	3218.66
877.10	3250.31
877.27	3166.53
877.44	3177.89
877.61	3133.02
877.79	3235.23
877.96	3219.41
878.13	3241.56
878.30	3231.32
878.47	3254.78
878.64	3248.82
878.81	3331.49
878.98	3349.55
879.15	3346.94
879.32	3361.09
879.49	3391.06
879.66	3341.17
879.83	3416.20
880.00	3431.46
880.17	3408.38
880.34	3469.82
880.51	3530.33
880.68	3545.41
880.85	3524.55
881.02	3512.64
881.19	3568.68
881.36	3589.72
881.53	3610.01
881.69	3567.00
881.86	3572.96
882.03	3583.39
882.20	3620.99
882.37	3568.12
882.54	3515.62
882.71	3499.05
882.88	3550.25
883.05	3462.56
883.22	3418.06
883.39	3404.84
883.56	3468.89
883.73	3469.63
883.90	3473.54
884.07	3380.64
884.24	3418.25
884.41	3509.47
884.58	3546.52
884.75	3526.79
884.92	3554.72
885.09	3677.97
885.26	3677.59
885.43	3646.87
885.60	3676.48
885.77	3605.91
885.93	3693.98
886.10	3699.56
886.27	3561.79
886.44	3626.77
886.61	3599.21
886.78	3559.37
886.95	3476.15
887.12	3444.87
887.29	3448.41
887.46	3421.97
887.63	3482.29
887.80	3368.91
887.97	3317.90
888.14	3310.82
888.30	3216.61
888.47	3325.16
888.64	3306.91
888.81	3378.59
888.98	3417.87
889.15	3358.11
889.32	3387.34
889.49	3347.31
889.66	3418.06
889.83	3458.83
890.00	3493.83
890.16	3568.31
890.33	3503.89
890.50	3575.94
890.67	3517.85
890.84	3497.37
891.01	3954.63
891.18	3313.61
891.35	3846.09
891.52	3481.55
891.68	3504.07
>>>>>End Processed Spectral Data<<<<<
