SpectraSuite Data File
++++++++++++++++++++++++++++++++++++
Date: Wed Mar 10 15:32:52 EST 2021
User: student
Dark Spectrum Present: No
Reference Spectrum Present: No
Number of Sampled Component Spectra: 1
Spectrometers: USB4F09272
Integration Time (usec): 4000000 (USB4F09272)
Spectra Averaged: 1 (USB4F09272)
Boxcar Smoothing: 5 (USB4F09272)
Correct for Electrical Dark: No (USB4F09272)
Strobe/Lamp Enabled: No (USB4F09272)
Correct for Detector Non-linearity: No (USB4F09272)
Correct for Stray Light: No (USB4F09272)
Number of Pixels in Processed Spectrum: 3648
>>>>>Begin Processed Spectral Data<<<<<
175.94	1325.04
176.16	1325.04
176.38	1325.04
176.61	1292.27
176.83	1316.84
177.05	2702.39
177.27	2910.54
177.49	3143.45
177.71	3332.79
177.93	3577.43
178.15	3881.83
178.37	3755.23
178.59	3761.93
178.81	3735.12
179.03	3756.53
179.25	3746.85
179.47	3766.03
179.69	3716.88
179.91	3716.32
180.13	3739.59
180.35	3755.42
180.58	3636.08
180.80	3668.84
181.02	3589.16
181.24	3630.68
181.46	3664.56
181.68	3540.19
181.90	3534.05
182.12	3560.67
182.34	3515.25
182.56	3542.06
182.78	3435.37
183.00	3498.12
183.22	3532.93
183.44	3525.49
183.66	3512.08
183.88	3428.86
184.10	3397.21
184.32	3464.60
184.54	3486.02
184.76	3503.14
184.98	3478.75
185.20	3531.26
185.42	3584.88
185.64	3510.78
185.86	3569.98
186.08	3587.11
186.30	3664.37
186.52	3747.78
186.74	3840.13
186.96	3797.86
187.18	3816.11
187.40	3857.07
187.62	3933.78
187.84	3816.11
188.06	3821.51
188.28	3783.53
188.50	3798.24
188.72	3862.66
188.94	3786.51
189.16	3680.39
189.38	3699.38
189.60	3626.02
189.82	3518.04
190.04	3408.75
190.26	3392.18
190.48	3469.26
190.70	3518.60
190.92	3504.63
191.14	3426.44
191.36	3545.03
191.58	3484.34
191.80	3558.81
192.02	3591.21
192.24	3630.49
192.46	3659.91
192.68	3685.60
192.90	3606.29
193.12	3581.52
193.34	3576.87
193.56	3556.39
193.78	3403.72
194.00	3519.71
194.22	3465.72
194.44	3512.64
194.66	3554.16
194.88	3573.52
195.10	3599.40
195.32	3592.88
195.54	3615.60
195.76	3585.81
195.98	3659.53
196.20	3669.77
196.42	3527.53
196.64	3497.93
196.86	3443.94
197.08	3373.75
197.30	3331.49
197.51	3347.50
197.73	3369.47
197.95	3406.70
198.17	3536.47
198.39	3428.86
198.61	3439.10
198.83	3508.73
199.05	3507.61
199.27	3487.32
199.49	3580.97
199.71	3663.82
199.93	3596.98
200.15	3555.83
200.37	3495.14
200.59	3349.55
200.81	3369.47
201.03	3367.61
201.25	3354.95
201.46	3406.70
201.68	3415.64
201.90	3348.43
202.12	3331.11
202.34	3372.63
202.56	3463.67
202.78	3472.61
203.00	3503.14
203.22	3459.39
203.44	3507.05
203.66	3489.18
203.88	3439.10
204.10	3451.39
204.31	3491.41
204.53	3410.43
204.75	3403.54
204.97	3401.68
205.19	3450.27
205.41	3609.82
205.63	3768.45
205.85	3782.60
206.07	3893.56
206.29	3997.08
206.51	3990.75
206.73	4022.96
206.94	4022.02
207.16	3961.70
207.38	3914.04
207.60	3885.00
207.82	3712.04
208.04	3616.90
208.26	3571.10
208.48	3486.76
208.70	3429.79
208.91	3463.67
209.13	3420.11
209.35	3412.66
209.57	3432.77
209.79	3395.35
210.01	3373.94
210.23	3469.07
210.45	3560.86
210.67	3588.79
210.88	3548.57
211.10	3560.11
211.32	3574.08
211.54	3524.00
211.76	3569.24
211.98	3693.79
212.20	3705.15
212.42	3723.77
212.63	3607.96
212.85	3477.82
213.07	3456.41
213.29	3406.89
213.51	3364.63
213.73	3343.40
213.95	3381.94
214.17	3348.43
214.38	3236.35
214.60	3217.17
214.82	3162.06
215.04	3179.19
215.26	3192.60
215.48	3259.62
215.70	3402.42
215.91	3418.99
216.13	3458.83
216.35	3440.59
216.57	3468.51
216.79	3488.25
217.01	3612.62
217.23	3602.56
217.44	3628.81
217.66	3621.93
217.88	3554.34
218.10	3491.41
218.32	3465.35
218.54	3408.56
218.75	3422.34
218.97	3476.89
219.19	3492.90
219.41	3464.98
219.63	3519.90
219.85	3467.96
220.06	3468.51
220.28	3465.16
220.50	3510.59
220.72	3493.28
220.94	3544.66
221.16	3578.55
221.37	3596.98
221.59	3537.21
221.81	3538.15
222.03	3574.26
222.25	3709.06
222.46	3764.73
222.68	3755.23
222.90	3813.50
223.12	3835.85
223.34	3772.54
223.56	3744.80
223.77	3769.38
223.99	3792.65
224.21	3831.00
224.43	3780.18
224.65	3628.44
224.86	3603.31
225.08	3636.08
225.30	3473.17
225.52	3395.90
225.74	3415.64
225.95	3493.28
226.17	3500.91
226.39	3494.02
226.61	3429.60
226.83	3646.13
227.04	3699.75
227.26	3688.39
227.48	3671.26
227.70	3686.16
227.92	3836.96
228.13	3835.29
228.35	3765.28
228.57	3603.87
228.79	3619.32
229.00	3580.59
229.22	3394.60
229.44	3346.94
229.66	3330.56
229.88	3370.40
230.09	3404.10
230.31	3350.48
230.53	3348.43
230.75	3332.79
230.96	3470.93
231.18	3533.12
231.40	3539.82
231.62	3502.59
231.84	3575.94
232.05	3579.48
232.27	3568.12
232.49	3605.91
232.71	3575.19
232.92	3619.32
233.14	3552.11
233.36	3458.83
233.58	3370.03
233.79	3397.95
234.01	3404.65
234.23	3432.02
234.45	3422.90
234.66	3415.45
234.88	3351.22
235.10	3349.92
235.32	3290.53
235.53	3319.01
235.75	3364.25
235.97	3335.02
236.19	3435.00
236.40	3442.82
236.62	3436.86
236.84	3435.93
237.06	3493.46
237.27	3626.39
237.49	3567.00
237.71	3564.21
237.92	3571.66
238.14	3510.22
238.36	3522.51
238.58	3374.49
238.79	3371.33
239.01	3270.79
239.23	3318.45
239.45	3183.85
239.66	3106.02
239.88	3175.47
240.10	3206.93
240.31	3200.79
240.53	3190.36
240.75	3286.06
240.97	3299.46
241.18	3388.09
241.40	3386.04
241.62	3333.16
241.83	3357.92
242.05	3290.90
242.27	3304.49
242.49	3219.78
242.70	3285.69
242.92	3277.87
243.14	3268.56
243.35	3259.99
243.57	3202.65
243.79	3237.28
244.00	3341.35
244.22	3562.53
244.44	3572.03
244.66	3550.62
244.87	3675.17
245.09	3576.13
245.31	3588.97
245.52	3560.67
245.74	3554.72
245.96	3498.86
246.17	3466.47
246.39	3470.56
246.61	3277.49
246.82	3282.71
247.04	3321.43
247.26	3238.02
247.47	3290.90
247.69	3367.23
247.91	3348.62
248.13	3390.51
248.34	3400.37
248.56	3453.25
248.78	3445.80
248.99	3420.67
249.21	3401.86
249.43	3346.94
249.64	3338.38
249.86	3330.37
250.08	3370.03
250.29	3354.01
250.51	3303.93
250.73	3360.90
250.94	3402.42
251.16	3365.37
251.37	3447.85
251.59	3477.45
251.81	3669.77
252.02	3691.37
252.24	3727.49
252.46	3689.14
252.67	3657.11
252.89	3671.08
253.11	3617.09
253.32	3564.77
253.54	3489.74
253.76	3441.52
253.97	3467.77
254.19	3246.78
254.41	3247.89
254.62	3233.00
254.84	3126.13
255.05	3152.38
255.27	3158.90
255.49	3149.22
255.70	3104.72
255.92	3138.98
256.14	3132.65
256.35	3104.91
256.57	3132.65
256.79	3168.77
257.00	3283.27
257.22	3290.34
257.43	3331.30
257.65	3317.52
257.87	3324.04
258.08	3323.48
258.30	3297.79
258.51	3263.53
258.73	3288.11
258.95	3329.62
259.16	3268.19
259.38	3132.28
259.60	3124.83
259.81	3134.88
260.03	3129.85
260.24	3161.13
260.46	3165.79
260.68	3270.98
260.89	3317.52
261.11	3265.21
261.32	3245.10
261.54	3337.44
261.76	3389.39
261.97	3409.12
262.19	3363.70
262.40	3383.62
262.62	3352.71
262.84	3422.34
263.05	3414.89
263.27	3412.10
263.48	3416.01
263.70	3393.48
263.91	3352.52
264.13	3272.10
264.35	3279.73
264.56	3278.24
264.78	3258.13
264.99	3258.32
265.21	3295.74
265.43	3276.75
265.64	3214.38
265.86	3199.49
266.07	3250.13
266.29	3312.50
266.50	3329.07
266.72	3365.00
266.94	3424.76
267.15	3451.94
267.37	3450.27
267.58	3381.57
267.80	3297.23
268.01	3370.58
268.23	3352.15
268.44	3296.67
268.66	3204.70
268.88	3259.99
269.09	3251.24
269.31	3258.50
269.52	3219.03
269.74	3307.66
269.95	3363.14
270.17	3414.34
270.38	3423.83
270.60	3440.59
270.82	3450.08
271.03	3524.55
271.25	3548.57
271.46	3793.21
271.68	3764.73
271.89	3879.78
272.11	3866.19
272.32	3886.30
272.54	3862.10
272.75	3850.93
272.97	3848.69
273.18	3868.05
273.40	3771.99
273.62	3724.70
273.83	3435.56
274.05	3464.05
274.26	3400.19
274.48	3276.75
274.69	3299.09
274.91	3287.73
275.12	3280.29
275.34	3270.23
275.55	3313.99
275.77	3388.83
275.98	3341.73
276.20	3341.91
276.41	3361.83
276.63	3424.02
276.84	3436.86
277.06	3292.02
277.27	3286.99
277.49	3284.38
277.70	3301.51
277.92	3265.95
278.13	3269.68
278.35	3295.00
278.56	3345.26
278.78	3272.28
278.99	3320.13
279.21	3408.75
279.42	3492.53
279.64	3473.36
279.85	3473.36
280.07	3534.61
280.28	3576.87
280.50	3572.77
280.71	3674.06
280.93	3629.93
281.14	3644.08
281.36	3502.77
281.57	3497.19
281.79	3410.99
282.00	3456.23
282.22	3408.38
282.43	3368.54
282.65	3383.06
282.86	3286.43
283.08	3190.55
283.29	3255.90
283.51	3276.94
283.72	3305.42
283.94	3251.43
284.15	3312.87
284.36	3303.75
284.58	3342.10
284.79	3354.20
285.01	3302.44
285.22	3430.16
285.44	3418.62
285.65	3376.17
285.87	3343.03
286.08	3308.77
286.30	3307.47
286.51	3261.67
286.73	3278.24
286.94	3361.28
287.15	3403.91
287.37	3380.08
287.58	3250.31
287.80	3206.37
288.01	3180.50
288.23	3175.28
288.44	3159.83
288.66	3157.04
288.87	3165.79
289.08	3176.59
289.30	3101.00
289.51	3030.44
289.73	2982.03
289.94	3056.87
290.16	3070.46
290.37	3055.94
290.58	3232.44
290.80	3239.14
291.01	3264.65
291.23	3293.51
291.44	3255.71
291.66	3238.02
291.87	3258.32
292.08	3378.03
292.30	3332.23
292.51	3446.73
292.73	3510.40
292.94	3382.50
293.16	3441.89
293.37	3425.32
293.58	3499.79
293.80	3528.84
294.01	3623.42
294.23	3750.02
294.44	3686.16
294.65	3768.82
294.87	3684.30
295.08	3630.12
295.30	3581.71
295.51	3601.82
295.72	3636.45
295.94	3646.69
296.15	3644.64
296.37	3548.76
296.58	3473.54
296.79	3467.77
297.01	3388.27
297.22	3404.10
297.44	3436.31
297.65	3430.53
297.86	3445.06
298.08	3425.69
298.29	3326.83
298.51	3291.64
298.72	3259.44
298.93	3209.17
299.15	3325.53
299.36	3307.10
299.57	3341.54
299.79	3394.23
300.00	3385.48
300.22	3304.86
300.43	3257.02
300.64	3271.72
300.86	3392.74
301.07	3476.15
301.28	3485.27
301.50	3346.94
301.71	3442.26
301.93	3419.55
302.14	3353.46
302.35	3343.96
302.57	3346.19
302.78	3397.39
302.99	3396.65
303.21	3284.01
303.42	3264.09
303.63	3273.03
303.85	3345.08
304.06	3289.04
304.28	3357.37
304.49	3389.02
304.70	3471.31
304.92	3456.23
305.13	3544.66
305.34	3488.62
305.56	3459.58
305.77	3456.41
305.98	3450.83
306.20	3390.69
306.41	3388.09
306.62	3310.82
306.84	3391.06
307.05	3304.49
307.26	3396.84
307.48	3311.01
307.69	3413.96
307.90	3400.37
308.12	3341.73
308.33	3309.52
308.54	3324.04
308.76	3356.43
308.97	3308.96
309.18	3187.38
309.40	3158.34
309.61	3080.14
309.82	3028.39
310.04	2983.89
310.25	3043.47
310.46	3064.32
310.67	3022.43
310.89	3068.79
311.10	3089.45
311.31	3159.27
311.53	3222.39
311.74	3272.65
311.95	3298.16
312.17	3315.29
312.38	3286.06
312.59	3275.82
312.81	3300.21
313.02	3400.75
313.23	3377.47
313.44	3295.37
313.66	3247.15
313.87	3208.05
314.08	3195.76
314.30	3220.90
314.51	3198.74
314.72	3214.57
314.93	3306.35
315.15	3246.96
315.36	3248.45
315.57	3200.23
315.79	3207.12
316.00	3171.00
316.21	3132.09
316.42	3214.94
316.64	3222.01
316.85	3217.55
317.06	3260.92
317.28	3117.57
317.49	3140.47
317.70	3059.11
317.91	3042.54
318.13	3034.34
318.34	3071.39
318.55	3118.50
318.76	3090.01
318.98	3030.81
319.19	3113.84
319.40	3128.37
319.62	3156.11
319.83	3176.96
320.04	3197.81
320.25	3259.81
320.47	3322.74
320.68	3319.57
320.89	3270.05
321.10	3208.42
321.32	3212.33
321.53	3174.54
321.74	3110.49
321.95	3147.91
322.17	3164.11
322.38	3163.93
322.59	3121.85
322.80	3072.51
323.02	3203.02
323.23	3193.34
323.44	3287.92
323.65	3269.49
323.86	3317.52
324.08	3294.62
324.29	3258.50
324.50	3250.87
324.71	3324.60
324.93	3389.20
325.14	3411.36
325.35	3314.17
325.56	3375.61
325.78	3282.89
325.99	3297.79
326.20	3260.37
326.41	3340.98
326.62	3390.51
326.84	3377.10
327.05	3319.38
327.26	3230.95
327.47	3231.32
327.69	3201.53
327.90	3250.50
328.11	3344.15
328.32	3321.43
328.53	3314.17
328.75	3329.62
328.96	3303.37
329.17	3259.81
329.38	3206.93
329.59	3252.55
329.81	3281.40
330.02	3286.99
330.23	3306.35
330.44	3266.14
330.65	3288.67
330.87	3278.98
331.08	3175.65
331.29	3162.99
331.50	3212.52
331.71	3301.88
331.92	3265.39
332.14	3230.21
332.35	3313.80
332.56	3192.22
332.77	3159.08
332.98	3289.41
333.20	3267.81
333.41	3297.23
333.62	3266.14
333.83	3279.92
334.04	3257.76
334.25	3294.81
334.47	3245.66
334.68	3166.16
334.89	3191.85
335.10	3252.92
335.31	3090.01
335.52	3071.21
335.74	3125.20
335.95	3207.68
336.16	3183.29
336.37	3169.70
336.58	3139.16
336.79	3155.92
337.01	3146.98
337.22	3190.74
337.43	3088.52
337.64	3118.50
337.85	3137.86
338.06	3099.14
338.28	3057.24
338.49	3100.81
338.70	3108.26
338.91	3127.99
339.12	3146.61
339.33	3116.82
339.54	3136.56
339.76	3181.98
339.97	3185.34
340.18	3185.15
340.39	3186.08
340.60	3343.77
340.81	3333.16
341.02	3313.43
341.23	3313.80
341.45	3341.91
341.66	3359.97
341.87	3293.69
342.08	3252.17
342.29	3236.35
342.50	3285.50
342.71	3360.72
342.92	3200.60
343.14	3170.44
343.35	3198.18
343.56	3144.94
343.77	3132.65
343.98	3149.22
344.19	3232.25
344.40	3238.96
344.61	3283.27
344.82	3244.73
345.04	3157.97
345.25	3231.32
345.46	3274.33
345.67	3235.60
345.88	3248.08
346.09	3236.54
346.30	3284.01
346.51	3202.84
346.72	3270.79
346.94	3239.89
347.15	3265.02
347.36	3263.72
347.57	3251.80
347.78	3168.21
347.99	3167.28
348.20	3232.44
348.41	3285.31
348.62	3297.42
348.83	3344.89
349.04	3382.69
349.25	3361.09
349.47	3351.97
349.68	3368.91
349.89	3351.78
350.10	3438.35
350.31	3400.37
350.52	3396.46
350.73	3394.23
350.94	3359.97
351.15	3425.32
351.36	3311.38
351.57	3314.73
351.78	3285.31
351.99	3316.59
352.21	3266.51
352.42	3284.76
352.63	3340.24
352.84	3276.94
353.05	3293.69
353.26	3230.76
353.47	3101.18
353.68	3085.92
353.89	3111.05
354.10	3153.50
354.31	3102.30
354.52	3090.94
354.73	3110.86
354.94	3095.41
355.15	3155.55
355.36	3082.94
355.57	3193.53
355.78	3281.59
355.99	3331.86
356.20	3307.47
356.42	3340.24
356.63	3346.19
356.84	3348.06
357.05	3390.88
357.26	3367.79
357.47	3371.33
357.68	3392.74
357.89	3330.18
358.10	3226.11
358.31	3202.28
358.52	3218.29
358.73	3171.75
358.94	3184.59
359.15	3289.22
359.36	3173.98
359.57	3311.19
359.78	3304.86
359.99	3290.53
360.20	3345.45
360.41	3344.33
360.62	3325.72
360.83	3341.73
361.04	3361.65
361.25	3355.50
361.46	3306.72
361.67	3347.31
361.88	3263.16
362.09	3215.31
362.30	3198.18
362.51	3215.50
362.72	3285.87
362.93	3306.54
363.14	3277.68
363.35	3319.38
363.56	3403.35
363.77	3348.62
363.98	3291.64
364.19	3366.49
364.40	3447.66
364.61	3555.46
364.82	3455.11
365.03	3579.10
365.24	3662.14
365.45	3772.17
365.66	3660.84
365.87	3556.20
366.08	3626.39
366.29	3734.38
366.50	3671.26
366.71	3599.21
366.92	3571.47
367.13	3669.59
367.34	3503.70
367.55	3457.53
367.76	3413.78
367.97	3436.31
368.18	3690.81
368.39	3610.57
368.60	3507.05
368.81	3472.24
369.01	3495.32
369.22	3478.75
369.43	3456.04
369.64	3430.72
369.85	3419.74
370.06	3385.66
370.27	3386.41
370.48	3158.90
370.69	3152.57
370.90	3200.42
371.11	3289.22
371.32	3253.11
371.53	3171.75
371.74	3174.35
371.95	3286.62
372.16	3251.06
372.37	3203.40
372.58	3372.45
372.79	3373.75
372.99	3348.06
373.20	3374.31
373.41	3379.52
373.62	3523.44
373.83	3530.33
374.04	3443.19
374.25	3474.29
374.46	3495.70
374.67	3475.03
374.88	3302.82
375.09	3307.47
375.30	3420.67
375.51	3348.24
375.72	3241.75
375.92	3133.58
376.13	3157.41
376.34	3308.21
376.55	3244.73
376.76	3251.62
376.97	3429.60
377.18	3466.09
377.39	3499.79
377.60	3474.29
377.81	3506.31
378.02	3662.89
378.22	3631.05
378.43	3638.87
378.64	3529.39
378.85	3510.96
379.06	3522.32
379.27	3429.42
379.48	3545.03
379.69	3524.00
379.90	3589.72
380.11	3549.69
380.31	3530.33
380.52	3572.40
380.73	3606.85
380.94	3617.27
381.15	3619.69
381.36	3613.92
381.57	3618.76
381.78	3482.29
381.99	3462.18
382.19	3372.82
382.40	3372.45
382.61	3294.25
382.82	3326.83
383.03	3343.96
383.24	3337.44
383.45	3323.67
383.65	3337.44
383.86	3261.86
384.07	3262.97
384.28	3258.88
384.49	3339.86
384.70	3390.32
384.91	3333.35
385.12	3269.86
385.32	3250.87
385.53	3206.56
385.74	3196.88
385.95	3206.56
386.16	3251.80
386.37	3250.50
386.58	3309.52
386.78	3217.55
386.99	3253.85
387.20	3275.07
387.41	3317.71
387.62	3299.28
387.83	3355.69
388.03	3376.36
388.24	3384.55
388.45	3403.35
388.66	3391.25
388.87	3331.49
389.08	3349.73
389.28	3310.63
389.49	3371.89
389.70	3359.79
389.91	3401.30
390.12	3490.11
390.33	3510.96
390.53	3506.68
390.74	3563.47
390.95	3685.41
391.16	3704.03
391.37	3746.85
391.58	3781.48
391.78	3746.48
391.99	3764.17
392.20	3697.33
392.41	3618.02
392.62	3632.72
392.82	3691.00
393.03	3658.79
393.24	3575.38
393.45	3629.19
393.66	3622.11
393.87	3730.65
394.07	3841.43
394.28	3861.91
394.49	3992.05
394.70	4030.77
394.91	4013.83
395.11	4041.20
395.32	4068.57
395.53	4214.16
395.74	4200.01
395.94	4228.50
396.15	4163.15
396.36	4094.82
396.57	4089.61
396.78	4042.50
396.98	4096.31
397.19	4172.83
397.40	4146.76
397.61	4164.82
397.82	4112.14
398.02	4145.65
398.23	4148.44
398.44	4188.84
398.65	4309.86
398.85	4403.51
399.06	4533.83
399.27	4615.94
399.48	4641.07
399.69	4669.93
399.89	4695.62
400.10	4734.16
400.31	4781.63
400.52	4807.70
400.72	4740.68
400.93	4700.83
401.14	4780.15
401.35	4688.73
401.55	4604.76
401.76	4605.88
401.97	4621.89
402.18	4732.11
402.38	4658.94
402.59	4726.34
402.80	4780.52
403.01	4818.50
403.21	4887.38
403.42	4966.88
403.63	5035.58
403.84	5025.16
404.04	4982.34
404.25	5071.14
404.46	4960.93
404.67	4988.67
404.87	4900.42
405.08	4871.00
405.29	4983.83
405.50	4911.03
405.70	4714.61
405.91	4762.27
406.12	4752.96
406.32	4728.76
406.53	4615.38
406.74	4597.50
406.95	4600.67
407.15	4597.69
407.36	4538.30
407.57	4466.62
407.77	4432.18
407.98	4393.45
408.19	4233.15
408.40	4227.57
408.60	4361.43
408.81	4313.02
409.02	4281.93
409.22	4224.96
409.43	4186.79
409.64	4159.24
409.85	4041.20
410.05	4025.75
410.26	4137.64
410.47	4131.13
410.67	4074.34
410.88	3956.86
411.09	3970.83
411.29	3955.74
411.50	3984.42
411.71	3977.71
411.92	3994.47
412.12	4014.76
412.33	4058.70
412.54	3987.40
412.74	4002.10
412.95	4000.61
413.16	4087.93
413.36	4067.08
413.57	4144.72
413.78	4156.07
413.98	4161.47
414.19	4177.30
414.40	4149.74
414.60	4026.31
414.81	3951.09
415.02	3939.92
415.22	3988.51
415.43	3847.20
415.64	3837.71
415.84	3809.41
416.05	3736.24
416.26	3648.92
416.46	3594.93
416.67	3583.57
416.88	3626.02
417.08	3746.67
417.29	3685.79
417.50	3595.30
417.70	3616.53
417.91	3596.98
418.12	3538.33
418.32	3579.85
418.53	3624.35
418.74	3615.60
418.94	3575.01
419.15	3550.25
419.36	3452.50
419.56	3449.52
419.77	3540.19
419.97	3634.40
420.18	3696.58
420.39	3712.22
420.59	3736.98
420.80	3758.40
421.01	3747.22
421.21	3875.50
421.42	3925.21
421.63	3929.12
421.83	4003.78
422.04	3910.88
422.24	3812.39
422.45	3835.29
422.66	3813.32
422.86	3755.97
423.07	3698.45
423.28	3874.20
423.48	3752.06
423.69	3712.78
423.89	3763.42
424.10	3680.20
424.31	3764.35
424.51	3810.15
424.72	3701.42
424.92	3710.36
425.13	3716.69
425.34	3690.81
425.54	3524.74
425.75	3538.89
425.95	3525.49
426.16	3407.45
426.37	3394.97
426.57	3360.34
426.78	3327.76
426.98	3315.85
427.19	3239.33
427.40	3181.24
427.60	3250.13
427.81	3279.17
428.01	3315.85
428.22	3307.84
428.43	3338.56
428.63	3347.31
428.84	3289.78
429.04	3376.54
429.25	3444.31
429.45	3495.88
429.66	3511.71
429.87	3491.04
430.07	3434.26
430.28	3358.85
430.48	3345.82
430.69	3345.45
430.89	3362.02
431.10	3387.15
431.31	3210.10
431.51	3237.65
431.72	3247.71
431.92	3221.27
432.13	3211.96
432.33	3280.85
432.54	3396.46
432.74	3358.48
432.95	3409.50
433.16	3380.64
433.36	3362.39
433.57	3547.83
433.77	3459.21
433.98	3571.66
434.18	3658.98
434.39	3661.95
434.59	3678.90
434.80	3605.17
435.01	3694.35
435.21	3625.09
435.42	3665.31
435.62	3715.76
435.83	3601.82
436.03	3601.45
436.24	3489.37
436.44	3421.04
436.65	3428.30
436.85	3380.45
437.06	3401.49
437.26	3333.72
437.47	3374.12
437.67	3463.86
437.88	3419.36
438.08	3384.73
438.29	3399.63
438.50	3453.25
438.70	3445.99
438.91	3442.45
439.11	3404.10
439.32	3358.48
439.52	3422.71
439.73	3397.58
439.93	3291.09
440.14	3385.48
440.34	3428.30
440.55	3414.71
440.75	3338.19
440.96	3332.05
441.16	3305.24
441.37	3356.06
441.57	3364.25
441.78	3327.20
441.98	3346.19
442.19	3333.72
442.39	3213.26
442.60	3982.37
442.80	3945.13
443.01	4084.58
443.21	4096.68
443.42	4106.74
443.62	4089.79
443.83	4916.99
444.03	4900.23
444.23	4926.30
444.44	4953.85
444.64	5004.49
444.85	4252.51
445.05	4344.67
445.26	4309.11
445.46	4317.12
445.67	4309.48
445.87	4284.72
446.08	3506.87
446.28	3492.53
446.49	3487.13
446.69	3467.96
446.90	3479.50
447.10	3424.20
447.31	3370.40
447.51	3241.56
447.71	3267.44
447.92	3297.97
448.12	3344.33
448.33	3343.59
448.53	3356.25
448.74	3292.76
448.94	3330.93
449.15	3329.44
449.35	3377.85
449.56	3382.50
449.76	3419.92
449.96	3482.29
450.17	3500.16
450.37	3449.15
450.58	3437.05
450.78	3429.04
450.99	3436.68
451.19	3448.41
451.39	3490.11
451.60	3416.94
451.80	3435.75
452.01	3414.89
452.21	3344.52
452.42	3293.32
452.62	3345.45
452.82	3287.73
453.03	3283.27
453.23	3313.99
453.44	3280.29
453.64	3206.00
453.85	3237.28
454.05	3213.82
454.25	3269.49
454.46	3272.47
454.66	3351.04
454.87	3279.73
455.07	3310.45
455.27	3302.44
455.48	3296.11
455.68	3258.32
455.89	3216.43
456.09	3174.17
456.29	3201.91
456.50	3138.42
456.70	3074.19
456.91	3006.05
457.11	3128.92
457.31	3194.46
457.52	3334.65
457.72	3349.17
457.93	3458.27
458.13	3508.92
458.33	3642.59
458.54	3630.49
458.74	3625.84
458.95	3680.76
459.15	3677.22
459.35	3633.28
459.56	3587.11
459.76	3462.18
459.96	3473.91
460.17	3431.09
460.37	3452.32
460.58	3413.22
460.78	3436.12
460.98	3539.63
461.19	3597.35
461.39	3606.29
461.59	3592.32
461.80	3606.85
462.00	3653.95
462.21	3637.94
462.41	3600.89
462.61	3570.73
462.82	3488.81
463.02	3464.05
463.22	3447.85
463.43	3436.49
463.63	3418.99
463.83	3381.20
464.04	3325.90
464.24	3319.57
464.44	3347.31
464.65	3399.07
464.85	3831.94
465.05	3858.56
465.26	3865.82
465.46	3798.24
465.66	3750.39
465.87	3889.09
466.07	3914.97
466.27	4058.89
466.48	4088.68
466.68	4062.05
466.88	4026.31
467.09	3595.49
467.29	3650.23
467.49	3720.23
467.70	3726.93
467.90	3715.02
468.10	3570.17
468.31	3649.11
468.51	3589.90
468.71	3545.96
468.92	3509.29
469.12	3568.68
469.32	3575.19
469.53	3527.53
469.73	3429.98
469.93	3418.80
470.14	3452.32
470.34	3418.25
470.54	3305.42
470.74	3256.46
470.95	3253.48
471.15	3246.78
471.35	3163.37
471.56	3151.82
471.76	3132.46
471.96	3113.28
472.17	3173.05
472.37	3356.25
472.57	3434.82
472.77	3505.94
472.98	3488.62
473.18	3446.17
473.38	3576.31
473.59	3610.57
473.79	3620.06
473.99	3658.60
474.19	3708.13
474.40	3725.07
474.60	3545.59
474.80	3606.47
475.01	3614.11
475.21	3598.84
475.41	3634.21
475.61	3601.63
475.82	3613.73
476.02	3661.58
476.22	3661.02
476.42	3693.23
476.63	3676.66
476.83	3609.08
477.03	3527.16
477.24	3492.53
477.44	3551.74
477.64	3541.68
477.84	3455.30
478.05	3427.93
478.25	3495.70
478.45	3460.32
478.65	3392.37
478.86	3366.67
479.06	3456.04
479.26	3432.02
479.46	3431.28
479.67	3375.42
479.87	3409.68
480.07	3410.43
480.27	3485.46
480.48	3369.65
480.68	3418.06
480.88	3492.35
481.08	3471.87
481.28	3431.09
481.49	3470.56
481.69	3491.23
481.89	3583.76
482.09	3548.20
482.30	3524.00
482.50	3483.22
482.70	3453.25
482.90	3416.20
483.11	3416.94
483.31	3483.78
483.51	3494.58
483.71	3563.84
483.91	3554.16
484.12	3481.73
484.32	3581.90
484.52	3713.71
484.72	3711.85
484.92	4044.55
485.13	4008.99
485.33	3982.55
485.53	3958.35
485.73	3975.85
485.93	3875.87
486.14	3828.58
486.34	3955.37
486.54	3876.06
486.74	3824.49
486.94	3854.65
487.15	3538.15
487.35	3564.21
487.55	3571.47
487.75	3504.26
487.95	3587.11
488.16	3609.82
488.36	3633.66
488.56	3518.41
488.76	3513.57
488.96	3555.46
489.17	3570.35
489.37	3607.40
489.57	3648.92
489.77	3638.12
489.97	3625.65
490.17	3545.96
490.38	3556.76
490.58	3560.86
490.78	3578.92
490.98	3561.60
491.18	3488.44
491.38	3444.87
491.59	3434.82
491.79	3393.67
491.99	3421.97
492.19	3545.59
492.39	3509.47
492.59	3511.71
492.80	3481.73
493.00	3490.86
493.20	3543.73
493.40	3565.70
493.60	3564.40
493.80	3565.89
494.00	3737.92
494.21	3734.38
494.41	3678.34
494.61	3741.83
494.81	3720.23
495.01	3777.39
495.21	3760.44
495.41	3768.45
495.62	3736.98
495.82	3701.42
496.02	3717.44
496.22	3576.31
496.42	3512.82
496.62	3568.12
496.82	3505.01
497.02	3550.06
497.23	3499.42
497.43	3563.65
497.63	3554.53
497.83	3534.61
498.03	3529.77
498.23	3544.48
498.43	3511.52
498.63	3593.25
498.84	3557.14
499.04	3567.75
499.24	3580.41
499.44	3762.86
499.64	3779.62
499.84	3748.71
500.04	3838.45
500.24	3884.07
500.44	3898.59
500.65	3960.21
500.85	3967.10
501.05	3924.47
501.25	3997.82
501.45	3973.99
501.65	3838.82
501.85	3851.86
502.05	3909.01
502.25	3845.53
502.45	3944.95
502.65	3893.75
502.86	3876.80
503.06	3826.35
503.26	3937.87
503.46	3888.16
503.66	3889.28
503.86	3893.00
504.06	3908.64
504.26	3894.31
504.46	3898.59
504.66	3774.78
504.86	3780.36
505.06	3878.48
505.26	4036.73
505.47	3936.01
505.67	4016.25
505.87	4000.24
506.07	3979.20
506.27	3932.29
506.47	3879.41
506.67	3872.15
506.87	3870.66
507.07	3861.35
507.27	3731.40
507.47	3588.79
507.67	3648.18
507.87	3652.27
508.07	3644.83
508.27	3667.35
508.47	3655.81
508.67	3677.03
508.87	3733.07
509.08	3732.33
509.28	3795.07
509.48	3878.67
509.68	3892.26
509.88	3881.83
510.08	3774.96
510.28	3815.92
510.48	3841.80
510.68	3826.91
510.88	3820.21
511.08	3789.49
511.28	3772.36
511.48	3794.51
511.68	3695.65
511.88	3687.83
512.08	3681.50
512.28	3715.02
512.48	3761.19
512.68	3752.81
512.88	3752.81
513.08	3733.45
513.28	3749.64
513.48	3836.59
513.68	3802.15
513.88	3870.47
514.08	3852.97
514.28	3852.79
514.48	3951.83
514.68	3958.91
514.88	3957.79
515.08	3935.82
515.28	3972.31
515.48	3964.31
515.68	3924.65
515.88	3973.99
516.08	3922.42
516.28	3943.08
516.48	3897.10
516.68	3838.45
516.88	3790.60
517.08	3798.80
517.28	3871.78
517.48	3932.66
517.68	3949.41
517.88	3927.82
518.08	3869.36
518.28	3932.66
518.48	3980.51
518.68	4075.27
518.88	4017.93
519.08	4055.54
519.28	4101.90
519.48	4041.57
519.68	3998.75
519.88	3967.10
520.08	3988.14
520.28	3991.49
520.48	3945.13
520.68	3873.45
520.88	3901.19
521.08	3918.70
521.28	3850.74
521.47	3766.21
521.67	3768.08
521.87	3825.42
522.07	3914.23
522.27	3906.78
522.47	3860.05
522.67	3836.59
522.87	3889.65
523.07	3818.34
523.27	3789.30
523.47	3863.03
523.67	3866.56
523.87	3859.86
524.07	3837.89
524.27	3762.12
524.47	3781.11
524.67	3863.59
524.87	3924.65
525.06	3933.40
525.26	3891.89
525.46	4052.19
525.66	3981.07
525.86	3988.70
526.06	3965.98
526.26	3918.88
526.46	3917.02
526.66	3932.66
526.86	3917.58
527.06	3891.33
527.26	3923.54
527.46	3939.92
527.65	3820.95
527.85	3876.80
528.05	3883.13
528.25	4017.93
528.45	4031.89
528.65	4077.13
528.85	4060.00
529.05	4107.29
529.25	4153.47
529.45	4104.69
529.65	4182.70
529.84	4209.88
530.04	4218.26
530.24	4242.83
530.44	4133.36
530.64	4169.11
530.84	4700.09
531.04	4750.73
531.24	4874.35
531.44	4853.50
531.63	4830.41
531.83	4818.50
532.03	4937.47
532.23	4933.93
532.43	4980.10
532.63	5024.41
532.83	5005.24
533.03	4476.30
533.22	4461.97
533.42	4297.20
533.62	4326.61
533.82	4399.22
534.02	4345.23
534.22	4225.15
534.42	4237.99
534.62	4237.62
534.81	4223.47
535.01	4269.08
535.21	4311.16
535.41	4326.80
535.61	4345.98
535.81	4323.82
536.01	4342.62
536.20	4411.88
536.40	4406.86
536.60	4556.54
536.80	4544.26
537.00	4557.29
537.20	4514.65
537.39	4582.61
537.59	4678.68
537.79	4740.49
537.99	4734.90
538.19	4813.29
538.39	4921.46
538.59	4962.41
538.78	4872.30
538.98	4897.25
539.18	4913.82
539.38	4966.70
539.58	4836.74
539.78	4770.28
539.97	4771.02
540.17	4885.34
540.37	4810.68
540.57	4751.66
540.77	4765.06
540.96	4724.29
541.16	4830.41
541.36	4933.37
541.56	4950.87
541.76	5111.17
541.96	5130.91
542.15	5137.42
542.35	5142.64
542.55	5156.60
542.75	5098.14
542.95	5237.40
543.14	5276.68
543.34	5140.03
543.54	5052.90
543.74	5028.32
543.94	4967.81
544.13	4925.18
544.33	4903.77
544.53	4872.68
544.73	4875.47
544.93	4904.51
545.12	4865.79
545.32	4963.53
545.52	5048.43
545.72	5069.65
545.91	5125.51
546.11	5204.26
546.31	5276.68
546.51	5318.57
546.71	5306.66
546.90	5292.70
547.10	5410.17
547.30	5445.18
547.50	5352.83
547.69	5384.85
547.89	5437.36
548.09	5452.07
548.29	5397.51
548.49	5459.33
548.68	5453.93
548.88	5459.14
549.08	5559.86
549.28	5489.49
549.47	5463.98
549.67	5479.43
549.87	5497.31
550.07	5474.41
550.26	5500.29
550.46	5622.61
550.66	5586.49
550.86	5625.21
551.05	5687.21
551.25	5641.60
551.45	5682.37
551.65	5638.80
551.84	5673.62
552.04	5663.94
552.24	5785.14
552.44	5809.34
552.63	5697.08
552.83	5810.09
553.03	5878.42
553.22	5878.23
553.42	5888.28
553.62	5862.59
553.82	6002.41
554.01	6010.04
554.21	5981.37
554.41	5917.88
554.61	5934.83
554.80	5983.98
555.00	5879.16
555.20	5835.78
555.39	5878.42
555.59	6004.46
555.79	6118.59
555.99	6025.50
556.18	6131.62
556.38	6204.97
556.58	6254.31
556.77	6336.42
556.97	6418.71
557.17	6536.00
557.37	6551.08
557.56	6704.49
557.76	6706.73
557.96	6811.92
558.15	6841.71
558.35	6864.23
558.55	6994.93
558.74	7119.48
558.94	7205.13
559.14	7206.99
559.33	7213.13
559.53	7296.54
559.73	7180.18
559.93	7171.61
560.12	7069.03
560.32	7100.87
560.52	7057.67
560.71	7016.34
560.91	6972.03
561.11	6910.03
561.30	6973.33
561.50	6958.81
561.70	7108.50
561.89	7146.85
562.09	7519.02
562.29	7596.29
562.48	7653.26
562.68	7811.51
562.88	7791.59
563.07	7835.16
563.27	7850.24
563.47	7848.56
563.66	7892.69
563.86	7826.78
564.06	7850.61
564.25	7570.41
564.45	7669.08
564.64	7704.09
564.84	7666.66
565.04	7810.95
565.23	7876.86
565.43	7920.43
565.63	7963.06
565.82	8035.67
566.02	8121.69
566.22	8232.09
566.41	8203.98
566.61	8112.00
566.81	8190.39
567.00	8230.79
567.20	8241.21
567.39	8261.32
567.59	8309.73
567.79	8375.08
567.98	8401.33
568.18	8344.73
568.38	8323.13
568.57	8395.74
568.77	8478.03
568.96	8497.95
569.16	8466.86
569.36	8542.64
569.55	8511.92
569.75	8596.26
569.94	8602.03
570.14	8742.41
570.34	8810.55
570.53	8873.48
570.73	8960.79
570.92	8986.11
571.12	9061.14
571.32	9189.98
571.51	9221.07
571.71	9318.26
571.90	9369.08
572.10	9425.12
572.30	9373.93
572.49	9380.44
572.69	9409.49
572.88	9471.30
573.08	9499.97
573.28	9511.33
573.47	9539.07
573.67	9487.49
573.86	9568.30
574.06	9538.14
574.26	9556.38
574.45	9546.33
574.65	9580.77
574.84	9648.35
575.04	9638.30
575.23	9692.48
575.43	9740.33
575.63	9757.27
575.82	9897.83
576.02	9930.97
576.21	10004.51
576.41	10017.73
576.60	10121.81
576.80	10202.05
576.99	10303.14
577.19	10319.16
577.39	10358.44
577.58	10371.47
577.78	10409.64
577.97	10368.49
578.17	10324.18
578.36	10313.38
578.56	10400.14
578.75	10383.95
578.95	10428.82
579.15	10389.35
579.34	10571.43
579.54	10576.64
579.73	10708.83
579.93	10789.63
580.12	10857.40
580.32	10950.68
580.51	11079.70
580.71	11113.95
580.90	11220.26
581.10	11247.07
581.29	11329.18
581.49	11395.27
581.68	11642.14
581.88	11572.89
582.07	11566.18
582.27	11575.12
582.47	11594.11
582.66	11559.29
582.86	11616.26
583.05	11643.07
583.25	11631.53
583.44	11633.95
583.64	11570.09
583.83	11410.91
584.03	11480.17
584.22	11498.97
584.42	11524.11
584.61	11528.20
584.81	11569.91
585.00	11582.01
585.20	11608.26
585.39	11720.90
585.59	11740.82
585.78	11695.76
585.98	11796.49
586.17	11838.38
586.37	11954.55
586.56	12005.57
586.76	12091.39
586.95	12051.55
587.15	12045.97
587.34	11997.93
587.54	11962.56
587.73	11941.52
587.92	12023.62
588.12	11982.29
588.31	11923.46
588.51	11858.11
588.70	11845.82
588.90	11782.90
589.09	11844.15
589.29	11870.59
589.48	11923.46
589.68	11924.76
589.87	12003.89
590.07	12080.22
590.26	12132.35
590.46	12190.44
590.65	12202.17
590.84	12221.72
591.04	12255.79
591.23	12207.01
591.43	12177.04
591.62	12165.68
591.82	12262.12
592.01	12239.59
592.21	12228.61
592.40	12148.55
592.59	12090.09
592.79	12016.92
592.98	12119.51
593.18	12099.77
593.37	12094.56
593.57	12125.84
593.76	12085.81
593.96	11961.81
594.15	11923.65
594.34	11829.25
594.54	11799.09
594.73	11821.43
594.93	11887.53
595.12	11728.72
595.32	11832.05
595.51	11872.45
595.70	11919.92
595.90	11922.53
596.09	11971.12
596.29	11944.68
596.48	11913.03
596.67	11945.06
596.87	11964.61
597.06	12091.39
597.26	12101.82
597.45	11916.94
597.65	11882.87
597.84	11765.39
598.03	11767.07
598.23	11706.93
598.42	11810.82
598.62	11770.42
598.81	11755.90
599.00	11722.57
599.20	11583.68
599.39	11603.79
599.58	11610.31
599.78	11630.41
599.97	11635.81
600.17	11627.81
600.36	11570.09
600.55	11417.43
600.75	11382.24
600.94	11347.79
601.14	11309.44
601.33	11240.18
601.52	11167.39
601.72	11135.92
601.91	11088.26
602.10	10992.19
602.30	10963.71
602.49	10998.34
602.69	11044.88
602.88	11035.20
603.07	10986.05
603.27	10973.76
603.46	10965.76
603.65	10920.51
603.85	10934.11
604.04	10872.11
604.23	10887.56
604.43	10789.26
604.62	10747.74
604.82	10650.55
605.01	10663.96
605.20	10617.97
605.40	10574.41
605.59	10502.17
605.78	10537.17
605.98	10479.08
606.17	10399.59
606.36	10462.89
606.56	10530.84
606.75	10449.67
606.94	10406.66
607.14	10291.97
607.33	10324.00
607.52	10328.46
607.72	10424.16
607.91	10304.82
608.10	10266.84
608.30	10281.92
608.49	10200.75
608.68	10178.96
608.88	10247.48
609.07	10210.43
609.26	10175.80
609.46	10123.48
609.65	10182.87
609.84	9963.00
610.03	9954.43
610.23	9946.43
610.42	9919.62
610.61	9841.79
610.81	9688.75
611.00	9557.68
611.19	9513.75
611.39	9494.57
611.58	9463.29
611.77	9285.30
611.97	9297.78
612.16	9268.73
612.35	9189.79
612.54	9179.74
612.74	9135.06
612.93	9157.03
613.12	9161.12
613.32	9119.23
613.51	9077.53
613.70	9042.90
613.89	9183.46
614.09	9116.07
614.28	9074.92
614.47	9021.30
614.67	8950.00
614.86	8939.38
615.05	8865.84
615.24	8784.86
615.44	8761.40
615.63	8789.14
615.82	8896.75
616.01	8654.90
616.21	8620.27
616.40	8545.62
616.59	8592.90
616.78	8555.85
616.98	8455.69
617.17	8450.85
617.36	8470.40
617.56	8523.83
617.75	8407.66
617.94	8246.43
618.13	8310.66
618.33	8301.91
618.52	8311.22
618.71	8219.99
618.90	8187.59
619.10	8210.31
619.29	8120.01
619.48	8024.87
619.67	7989.87
619.86	8043.49
620.06	7967.34
620.25	7941.28
620.44	7959.52
620.63	7958.78
620.83	7949.10
621.02	7968.83
621.21	8004.95
621.40	8010.35
621.60	7971.44
621.79	7860.10
621.98	7780.61
622.17	7725.31
622.36	7598.34
622.56	7530.75
622.75	7471.92
622.94	7517.53
623.13	7424.82
623.33	7311.25
623.52	7309.57
623.71	7238.08
623.90	7270.48
624.09	7216.86
624.29	7226.72
624.48	7163.61
624.67	7085.97
624.86	7037.75
625.05	6994.37
625.25	7006.29
625.44	6974.64
625.63	6978.17
625.82	6996.42
626.01	7548.63
626.21	7523.12
626.40	7464.47
626.59	7523.31
626.78	7590.33
626.97	7673.37
627.16	7571.53
627.36	7555.89
627.55	7484.39
627.74	7417.37
627.93	7449.21
628.12	6903.33
628.31	6916.74
628.51	6889.93
628.70	6849.90
628.89	6750.29
629.08	6689.22
629.27	6650.69
629.47	6596.51
629.66	6572.49
629.85	6649.20
630.04	6562.06
630.23	6441.61
630.42	6355.22
630.61	6329.90
630.81	6260.08
631.00	6269.20
631.19	6167.36
631.38	6197.34
631.57	6147.26
631.76	6155.45
631.96	6112.63
632.15	6060.13
632.34	6090.10
632.53	6145.95
632.72	6203.30
632.91	6144.46
633.10	6109.65
633.29	6172.39
633.49	6091.22
633.68	6085.45
633.87	6103.88
634.06	5951.77
634.25	5976.53
634.44	5977.09
634.63	5903.92
634.83	5767.45
635.02	5752.19
635.21	5704.52
635.40	5672.31
635.59	5629.12
635.78	5654.44
635.97	5620.56
636.16	5673.06
636.35	5665.05
636.55	5558.19
636.74	5580.16
636.93	5597.28
637.12	5582.20
637.31	5605.10
637.50	5483.72
637.69	5443.13
637.88	5361.58
638.07	5395.09
638.26	5326.58
638.46	5275.38
638.65	5285.62
638.84	5236.10
639.03	5275.38
639.22	5282.08
639.41	5234.05
639.60	5264.77
639.79	5284.88
639.98	5227.16
640.17	5129.79
640.36	5121.23
640.56	5080.08
640.75	5031.49
640.94	4973.59
641.13	4916.43
641.32	4884.03
641.51	4887.94
641.70	4826.32
641.89	4798.58
642.08	4933.18
642.27	4966.70
642.46	5015.66
642.65	5058.86
642.84	5095.53
643.03	5137.24
643.22	5133.89
643.42	5177.82
643.61	5108.01
643.80	5183.97
643.99	5197.37
644.18	5085.85
644.37	5053.64
644.56	4968.56
644.75	4926.48
644.94	4847.91
645.13	4811.61
645.32	4863.93
645.51	4887.20
645.70	4902.65
645.89	4869.32
646.08	4859.46
646.27	4952.55
646.46	4951.06
646.65	4931.88
646.84	4985.31
647.03	5001.70
647.22	4969.68
647.41	4921.83
647.60	4902.28
647.79	4989.97
647.98	4971.16
648.17	4987.73
648.36	4928.34
648.56	4958.50
648.75	5052.34
648.94	4983.64
649.13	4954.78
649.32	4967.26
649.51	4880.68
649.70	4761.34
649.89	4718.52
650.08	4662.29
650.27	4740.12
650.46	4678.86
650.65	4612.96
650.84	4575.35
651.03	4596.76
651.22	4653.54
651.41	4679.24
651.60	4718.33
651.79	4741.05
651.98	4681.84
652.17	4784.43
652.36	4631.39
652.55	4593.97
652.74	4525.27
652.92	4540.72
653.11	4563.25
653.30	4522.10
653.49	4444.09
653.68	4402.20
653.87	4440.55
654.06	4448.93
654.25	4307.81
654.44	4323.82
654.63	4409.84
654.82	4458.80
655.01	4344.30
655.20	4362.73
655.39	4345.60
655.58	4359.38
655.77	4367.94
655.96	4399.22
656.15	4408.72
656.34	4462.15
656.53	4452.84
656.72	4497.71
656.91	4470.72
657.10	4509.81
657.29	4506.83
657.48	4567.53
657.67	4585.59
657.86	4578.33
658.04	4528.06
658.23	4533.83
658.42	4532.90
658.61	4519.12
658.80	4377.63
658.99	4355.47
659.18	4323.45
659.37	4254.19
659.56	4116.98
659.75	4135.04
659.94	4166.50
660.13	4190.89
660.32	4128.89
660.51	4086.63
660.69	4105.62
660.88	4116.60
661.07	4104.69
661.26	4135.41
661.45	4188.28
661.64	4214.91
661.83	4385.82
662.02	4321.03
662.21	4288.07
662.40	4321.59
662.59	4339.46
662.78	4367.39
662.96	4398.85
663.15	4417.65
663.34	4413.37
663.53	4386.94
663.72	4441.67
663.91	4263.68
664.10	4236.69
664.29	4189.03
664.48	4230.73
664.66	4280.44
664.85	4249.35
665.04	4210.81
665.23	4211.00
665.42	4211.74
665.61	4199.27
665.80	4262.38
665.99	4209.13
666.18	4339.65
666.36	4359.94
666.55	4275.41
666.74	4239.67
666.93	4315.63
667.12	4377.63
667.31	4391.59
667.50	4369.06
667.69	4376.32
667.87	4291.05
668.06	4311.16
668.25	4202.62
668.44	4193.68
668.63	4197.78
668.82	4203.92
669.01	4115.67
669.19	4059.82
669.38	4054.23
669.57	4080.48
669.76	4094.26
669.95	4132.24
670.14	4199.83
670.32	4197.78
670.51	4174.69
670.70	4166.87
670.89	4200.01
671.08	4254.00
671.27	4259.03
671.46	4284.54
671.64	4266.29
671.83	4333.50
672.02	4333.69
672.21	4301.85
672.40	4402.39
672.59	4406.30
672.77	4505.53
672.96	4467.74
673.15	4372.79
673.34	4363.48
673.53	4373.72
673.71	4335.74
673.90	4217.33
674.09	4118.47
674.28	4070.62
674.47	3969.52
674.66	4019.60
674.84	4020.35
675.03	3986.84
675.22	4043.44
675.41	4034.50
675.60	4022.58
675.78	4037.66
675.97	4049.39
676.16	4083.09
676.35	4059.45
676.54	4214.35
676.72	4160.17
676.91	4116.79
677.10	4107.48
677.29	4079.37
677.47	4210.07
677.66	4212.86
677.85	4181.39
678.04	4151.23
678.23	4169.29
678.41	4182.32
678.60	4008.62
678.79	4038.97
678.98	4081.79
679.17	4097.61
679.35	4272.81
679.54	4181.39
679.73	4110.65
679.92	4154.58
680.10	4262.01
680.29	4230.54
680.48	4267.59
680.67	4331.83
680.85	4276.16
681.04	4344.11
681.23	4423.80
681.42	4260.33
681.60	4219.00
681.79	4235.76
681.98	4222.73
682.17	4112.88
682.35	4168.55
682.54	4161.84
682.73	4147.51
682.92	4207.83
683.10	4026.12
683.29	3992.79
683.48	4004.71
683.67	4053.86
683.85	4076.95
684.04	4124.61
684.23	4139.88
684.42	4113.81
684.60	4083.09
684.79	4085.14
684.98	4092.96
685.16	4119.95
685.35	4054.05
685.54	4157.94
685.73	4191.26
685.91	4147.70
686.10	4055.16
686.29	4045.67
686.48	3992.24
686.66	4025.00
686.85	4014.58
687.04	4103.94
687.22	4090.72
687.41	4060.75
687.60	3920.37
687.78	3849.62
687.97	3884.81
688.16	3906.41
688.35	3920.93
688.53	3942.71
688.72	3956.68
688.91	3932.29
689.09	3865.45
689.28	3901.19
689.47	3945.50
689.65	3995.96
689.84	3971.57
690.03	4024.44
690.22	4096.12
690.40	4102.45
690.59	4095.19
690.78	4052.00
690.96	4045.86
691.15	4035.62
691.34	3989.44
691.52	4051.81
691.71	4020.35
691.90	3984.04
692.08	3949.04
692.27	3916.65
692.46	3896.54
692.64	3909.20
692.83	3977.16
693.02	4043.44
693.20	3970.64
693.39	4057.21
693.58	3974.73
693.76	3978.27
693.95	4084.21
694.14	4060.56
694.32	4038.59
694.51	4054.98
694.70	4083.84
694.88	4018.49
695.07	3981.62
695.25	4132.06
695.44	4103.57
695.63	4098.92
695.81	4116.98
696.00	4110.65
696.19	4131.50
696.37	4207.27
696.56	4274.67
696.75	4222.35
696.93	4220.12
697.12	4208.02
697.30	4127.40
697.49	4102.08
697.68	4131.31
697.86	4113.25
698.05	4074.53
698.24	4081.60
698.42	4016.25
698.61	3987.95
698.79	3961.14
698.98	3997.82
699.17	4437.20
699.35	4410.58
699.54	4356.03
699.72	4339.65
699.91	4416.17
700.10	4418.96
700.28	4343.37
700.47	4365.90
700.65	4316.37
700.84	4323.82
701.03	4358.08
701.21	3962.63
701.40	4014.39
701.58	4026.31
701.77	4213.79
701.96	4181.58
702.14	4170.22
702.33	4215.84
702.51	4164.27
702.70	4155.89
702.89	4172.46
703.07	4060.38
703.26	4041.20
703.44	4132.24
703.63	4221.24
703.81	4101.71
704.00	4027.05
704.19	4061.87
704.37	4082.90
704.56	4101.90
704.74	4076.20
704.93	4113.07
705.11	4155.70
705.30	4148.07
705.49	3957.79
705.67	3884.44
705.86	3901.57
706.04	3974.92
706.23	3887.23
706.41	3914.79
706.60	4097.99
706.78	4107.11
706.97	4116.42
707.16	4123.68
707.34	4087.56
707.53	4152.54
707.71	4164.08
707.90	4194.43
708.08	4131.13
708.27	4126.28
708.45	4043.62
708.64	3859.86
708.82	3870.10
709.01	3827.84
709.19	3782.78
709.38	3801.40
709.56	3809.97
709.75	3838.82
709.94	3838.82
710.12	3817.04
710.31	3916.09
710.49	4027.80
710.68	4050.88
710.86	4020.35
711.05	4085.88
711.23	4082.72
711.42	4151.23
711.60	4115.86
711.79	4133.92
711.97	4003.78
712.16	4154.77
712.34	4170.60
712.53	4108.60
712.71	4149.74
712.90	4162.03
713.08	4268.71
713.27	4353.05
713.45	4307.81
713.64	4321.21
713.82	4342.07
714.01	4352.49
714.19	4308.18
714.38	4367.94
714.56	4886.27
714.75	4825.20
714.93	4821.85
715.12	4654.29
715.30	4682.40
715.49	4662.48
715.67	4663.22
715.85	4568.83
716.04	4604.02
716.22	4595.08
716.41	4426.78
716.59	3902.13
716.78	3898.22
716.96	3965.98
717.15	3965.80
717.33	3882.95
717.52	3920.93
717.70	3917.95
717.89	4712.56
718.07	4719.08
718.25	4755.94
718.44	4861.69
718.62	4922.01
718.81	4925.18
718.99	4885.71
719.18	4921.83
719.36	4941.93
719.55	4919.22
719.73	4969.68
719.92	4238.92
720.10	4146.39
720.28	4035.24
720.47	3987.21
720.65	3901.94
720.84	3842.18
721.02	3926.14
721.21	3888.91
721.39	3922.05
721.57	3884.81
721.76	3799.91
721.94	3747.22
722.13	3849.25
722.31	3877.92
722.50	3847.57
722.68	3985.16
722.86	4109.34
723.05	4037.48
723.23	4104.13
723.42	4078.25
723.60	4117.53
723.78	4088.86
723.97	4111.58
724.15	4026.12
724.34	3999.87
724.52	4017.18
724.70	3860.42
724.89	3797.12
725.07	3758.40
725.26	3689.69
725.44	3781.11
725.62	3754.30
725.81	3802.89
725.99	3762.49
726.18	3799.73
726.36	3805.50
726.54	3822.81
726.73	3827.84
726.91	3852.79
727.10	3902.13
727.28	3892.44
727.46	3809.22
727.65	3777.01
727.83	3841.62
728.01	3877.18
728.20	3891.33
728.38	3894.49
728.57	3881.65
728.75	3881.65
728.93	3823.37
729.12	3764.17
729.30	3786.14
729.48	3731.77
729.67	3726.37
729.85	3671.64
730.03	3646.87
730.22	3655.44
730.40	3694.91
730.58	3631.42
730.77	3641.10
730.95	3741.08
731.13	3728.23
731.32	3709.80
731.50	3729.54
731.69	3765.66
731.87	3798.61
732.05	3794.14
732.24	3767.89
732.42	3708.50
732.60	3787.44
732.79	3763.79
732.97	3654.51
733.15	3662.14
733.34	3642.22
733.52	3639.99
733.70	3626.95
733.89	3553.78
734.07	3643.52
734.25	3626.21
734.43	3627.14
734.62	3593.81
734.80	3621.37
734.98	3689.88
735.17	3750.02
735.35	3787.81
735.53	3905.48
735.72	3948.48
735.90	3998.01
736.08	3907.52
736.27	3880.53
736.45	3915.90
736.63	3898.77
736.81	3876.06
737.00	3846.46
737.18	3869.54
737.36	3884.44
737.55	3792.28
737.73	3768.08
737.91	3691.00
738.10	3739.22
738.28	3791.72
738.46	3797.86
738.64	3953.51
738.83	3955.74
739.01	3933.40
739.19	3868.43
739.38	3853.90
739.56	3811.64
739.74	3804.57
739.92	3957.98
740.11	3996.15
740.29	3998.38
740.47	3958.17
740.65	3806.99
740.84	3923.91
741.02	4022.77
741.20	4098.92
741.38	4131.68
741.57	4173.20
741.75	4264.80
741.93	4117.35
742.11	4015.69
742.30	4081.04
742.48	4104.13
742.66	4103.76
742.84	4006.94
743.03	3894.68
743.21	3819.65
743.39	3836.22
743.57	3800.84
743.76	3676.85
743.94	3812.01
744.12	3890.02
744.30	3816.30
744.49	3780.55
744.67	3815.74
744.85	3844.97
745.03	3896.35
745.22	3891.51
745.40	3898.96
745.58	3927.82
745.76	3972.50
745.94	3835.10
746.13	3784.46
746.31	3883.51
746.49	3930.24
746.67	3881.27
746.86	3867.87
747.04	3823.00
747.22	3809.22
747.40	3753.00
747.58	3728.79
747.77	3692.67
747.95	3701.61
748.13	3667.35
748.31	3538.52
748.49	3519.71
748.68	3559.74
748.86	3517.11
749.04	3521.39
749.22	3521.39
749.40	3520.83
749.59	3571.29
749.77	3605.91
749.95	3646.50
750.13	3776.45
750.31	3829.89
750.49	3825.61
750.68	3813.50
750.86	3857.81
751.04	3825.05
751.22	3925.77
751.40	3887.79
751.59	3804.57
751.77	3782.97
751.95	3734.01
752.13	3643.89
752.31	3603.68
752.49	3601.07
752.68	3616.34
752.86	3594.56
753.04	3658.79
753.22	3634.96
753.40	3676.48
753.58	3692.12
753.76	3764.91
753.95	3880.71
754.13	3852.60
754.31	3845.15
754.49	3908.08
754.67	3888.35
754.85	3951.83
755.04	3909.20
755.22	3873.83
755.40	3917.39
755.58	3904.17
755.76	3882.95
755.94	3775.15
756.12	3831.75
756.30	3943.08
756.49	3880.16
756.67	3875.50
756.85	3787.07
757.03	3817.04
757.21	3796.93
757.39	3701.24
757.57	3707.75
757.75	3660.46
757.94	3751.88
758.12	3761.19
758.30	3689.32
758.48	3652.27
758.66	3685.23
758.84	3743.50
759.02	3692.49
759.20	3723.21
759.38	3782.60
759.57	3763.24
759.75	3958.91
759.93	3882.02
760.11	3869.36
760.29	3847.76
760.47	3849.62
760.65	3825.98
760.83	3800.10
761.01	3832.49
761.19	3800.84
761.38	3803.26
761.56	3976.04
761.74	3860.61
761.92	3834.54
762.10	3875.32
762.28	3866.75
762.46	3903.43
762.64	3882.76
762.82	3865.26
763.00	3933.40
763.18	3946.44
763.36	3968.40
763.54	3822.07
763.73	3791.72
763.91	3908.83
764.09	3888.53
764.27	3861.17
764.45	3856.70
764.63	3887.98
764.81	3890.77
764.99	3860.79
765.17	3902.13
765.35	3873.64
765.53	3881.27
765.71	3849.62
765.89	3756.53
766.07	3734.19
766.25	3730.10
766.43	3738.10
766.61	3716.88
766.79	3711.48
766.98	3682.62
767.16	3670.70
767.34	3647.25
767.52	3631.42
767.70	3616.71
767.88	3606.66
768.06	3548.94
768.24	3581.90
768.42	3548.94
768.60	3513.57
768.78	3558.44
768.96	3508.54
769.14	3471.31
769.32	3437.98
769.50	3485.08
769.68	3532.56
769.86	3574.26
770.04	3612.43
770.22	3635.70
770.40	3644.08
770.58	3706.82
770.76	3643.89
770.94	3737.17
771.12	3754.30
771.30	3857.63
771.48	3858.75
771.66	3806.06
771.84	3771.61
772.02	3747.97
772.20	3772.54
772.38	3872.90
772.56	3888.35
772.74	3944.39
772.92	3863.96
773.10	3840.13
773.28	3843.29
773.46	3783.72
773.64	3761.37
773.82	3816.30
774.00	3831.75
774.18	3775.71
774.36	3673.50
774.54	3640.92
774.72	3619.51
774.90	3658.60
775.08	3674.24
775.26	3639.05
775.44	3729.16
775.62	3743.50
775.80	3706.45
775.97	3644.45
776.15	3657.67
776.33	3677.59
776.51	3676.29
776.69	3711.29
776.87	3723.39
777.05	3713.53
777.23	3706.64
777.41	3617.83
777.59	3589.90
777.77	3556.02
777.95	3704.22
778.13	3731.21
778.31	3767.15
778.49	3798.05
778.67	3726.19
778.85	3681.32
779.03	3652.46
779.21	3634.21
779.38	3765.28
779.56	3855.39
779.74	3862.84
779.92	3749.09
780.10	3755.42
780.28	3785.02
780.46	3723.39
780.64	3804.57
780.82	3811.08
781.00	3811.83
781.18	3774.03
781.36	3664.37
781.53	3606.10
781.71	3630.12
781.89	3661.95
782.07	3569.05
782.25	3547.45
782.43	3575.94
782.61	3515.25
782.79	3626.39
782.97	3627.33
783.15	3637.75
783.33	4224.40
783.50	4205.04
783.68	4162.59
783.86	4183.63
784.04	4253.82
784.22	4272.06
784.40	4270.01
784.58	4270.95
784.76	4167.24
784.94	4194.05
785.11	4180.84
785.29	3572.40
785.47	3572.03
785.65	3591.76
785.83	3548.39
786.01	3533.49
786.19	3460.69
786.37	3442.82
786.54	3444.12
786.72	3470.00
786.90	3495.14
787.08	3491.41
787.26	3522.69
787.44	3528.28
787.62	3575.01
787.79	3546.90
787.97	3526.23
788.15	3526.23
788.33	3522.13
788.51	3552.67
788.69	3505.01
788.87	3488.99
789.04	3527.35
789.22	3518.04
789.40	3477.26
789.58	3440.96
789.76	3441.89
789.94	3455.85
790.11	3438.35
790.29	3511.71
790.47	3447.85
790.65	3478.57
790.83	3448.78
791.01	3460.69
791.18	3507.98
791.36	3555.65
791.54	3574.08
791.72	3646.69
791.90	3736.80
792.07	3728.23
792.25	3730.84
792.43	3799.91
792.61	3831.38
792.79	3827.47
792.97	3768.63
793.14	3761.19
793.32	3742.38
793.50	3730.10
793.68	3751.13
793.86	3662.14
794.03	3728.61
794.21	3759.88
794.39	3705.89
794.57	3727.49
794.75	3712.41
794.92	3749.64
795.10	3728.79
795.28	3728.98
795.46	3720.41
795.64	3673.31
795.81	3688.95
795.99	3618.20
796.17	3545.59
796.35	3559.18
796.52	3466.65
796.70	3486.02
796.88	3494.39
797.06	3437.05
797.24	3426.25
797.41	3455.30
797.59	3437.05
797.77	3441.33
797.95	3514.69
798.12	3475.96
798.30	3486.02
798.48	3523.25
798.66	3521.95
798.83	3612.62
799.01	3688.39
799.19	3745.18
799.37	3730.84
799.54	3749.09
799.72	3800.66
799.90	3755.04
800.08	3749.46
800.25	3715.02
800.43	3737.92
800.61	3747.78
800.79	3647.99
800.96	3629.56
801.14	3604.24
801.32	3626.02
801.50	3624.16
801.67	3564.77
801.85	3690.25
802.03	3665.49
802.21	3783.53
802.38	3807.36
802.56	3779.06
802.74	3788.18
802.91	3757.46
803.09	3810.71
803.27	3917.02
803.45	3931.36
803.62	3886.30
803.80	3828.21
803.98	4004.15
804.15	3930.98
804.33	3817.79
804.51	3817.41
804.69	3789.86
804.86	3783.90
805.04	3768.82
805.22	3606.85
805.39	3677.41
805.57	3667.73
805.75	3569.61
805.92	3529.77
806.10	3479.87
806.28	3489.37
806.45	3594.93
806.63	3596.98
806.81	3642.22
806.99	3610.76
807.16	3639.61
807.34	3597.35
807.52	3622.30
807.69	3760.82
807.87	3620.62
808.05	3740.89
808.22	3754.86
808.40	3739.59
808.58	3719.11
808.75	3650.78
808.93	3595.49
809.11	3583.95
809.28	3516.55
809.46	3529.95
809.64	3443.75
809.81	3455.85
809.99	3378.03
810.17	3438.35
810.34	3359.04
810.52	3403.54
810.70	3447.48
810.87	3458.83
811.05	3517.85
811.22	3497.37
811.40	3480.62
811.58	3453.25
811.75	3480.24
811.93	3501.84
812.11	3550.06
812.28	3561.05
812.46	3532.93
812.64	3511.52
812.81	3571.66
812.99	3478.94
813.16	3498.68
813.34	3533.86
813.52	3541.31
813.69	3530.88
813.87	3449.34
814.05	3407.82
814.22	3381.94
814.40	3392.18
814.57	3445.61
814.75	3411.92
814.93	3460.69
815.10	3458.27
815.28	3440.03
815.46	3413.96
815.63	3437.05
815.81	3529.95
815.98	3494.21
816.16	3512.27
816.34	3489.18
816.51	3419.36
816.69	3384.18
816.86	3369.84
817.04	3391.44
817.21	3344.52
817.39	3357.18
817.57	3357.74
817.74	3331.67
817.92	3332.23
818.09	3343.03
818.27	3365.56
818.45	3377.47
818.62	3417.32
818.80	3385.11
818.97	3410.43
819.15	3429.79
819.32	3518.78
819.50	3522.88
819.68	3475.03
819.85	3570.17
820.03	3592.70
820.20	3676.85
820.38	3680.57
820.55	3808.85
820.73	3823.00
820.91	3819.28
821.08	3941.97
821.26	3922.60
821.43	3861.72
821.61	3857.81
821.78	3774.96
821.96	3720.04
822.13	3676.66
822.31	3683.92
822.48	3566.07
822.66	3602.38
822.84	3658.79
823.01	3571.29
823.19	3480.62
823.36	3522.69
823.54	3558.81
823.71	3546.15
823.89	3632.91
824.06	3565.14
824.24	3576.31
824.41	3536.10
824.59	3464.05
824.76	3335.21
824.94	3271.72
825.11	3297.97
825.29	3279.92
825.46	3236.72
825.64	3265.02
825.81	3204.70
825.99	3210.10
826.16	3204.14
826.34	3219.22
826.52	3267.63
826.69	3299.28
826.87	3370.96
827.04	3357.37
827.22	3367.79
827.39	3358.67
827.57	3349.73
827.74	3327.20
827.91	3337.07
828.09	3341.54
828.26	3368.72
828.44	3430.91
828.61	3457.16
828.79	3457.16
828.96	3464.60
829.14	3493.28
829.31	3543.92
829.49	3567.00
829.66	3641.85
829.84	3687.46
830.01	3687.46
830.19	3722.83
830.36	3683.74
830.54	3666.98
830.71	3620.06
830.89	3639.43
831.06	3647.80
831.24	3616.15
831.41	3607.96
831.58	3508.54
831.76	3470.93
831.93	3477.45
832.11	3496.44
832.28	3460.32
832.46	3418.25
832.63	3471.87
832.81	3463.30
832.98	3416.01
833.16	3460.32
833.33	3427.74
833.50	3500.91
833.68	3544.10
833.85	3562.35
834.03	3534.61
834.20	3523.81
834.38	3650.97
834.55	3643.15
834.72	3685.04
834.90	3790.98
835.07	3854.28
835.25	3863.96
835.42	3820.02
835.60	3792.84
835.77	3781.48
835.94	3736.98
836.12	3782.41
836.29	3656.56
836.47	3611.31
836.64	3522.69
836.81	3471.31
836.99	3357.74
837.16	3365.93
837.34	3368.54
837.51	3305.61
837.68	3283.64
837.86	3306.54
838.03	3285.87
838.21	3325.34
838.38	3303.75
838.55	3297.42
838.73	3220.15
838.90	3217.17
839.08	3180.68
839.25	3194.65
839.42	3254.97
839.60	3247.89
839.77	3165.97
839.95	3158.34
840.12	3132.83
840.29	3158.34
840.47	3183.66
840.64	3239.14
840.81	3261.48
840.99	3309.89
841.16	3351.41
841.34	3333.91
841.51	3364.44
841.68	3451.39
841.86	3448.59
842.03	3421.78
842.20	3410.05
842.38	3426.62
842.55	3452.13
842.72	3488.62
842.90	3476.33
843.07	3430.53
843.24	3423.83
843.42	3400.37
843.59	3420.11
843.77	3492.72
843.94	3534.61
844.11	3546.15
844.29	3534.05
844.46	3464.60
844.63	3467.58
844.81	3418.06
844.98	3467.21
845.15	3492.16
845.33	3479.31
845.50	3428.49
845.67	3318.45
845.85	3335.58
846.02	3343.77
846.19	3301.70
846.37	3373.75
846.54	3407.82
846.71	3402.98
846.88	3363.88
847.06	3292.02
847.23	3432.21
847.40	3429.04
847.58	3485.64
847.75	3453.43
847.92	3452.50
848.10	3504.45
848.27	3494.95
848.44	3515.25
848.62	3522.13
848.79	3501.65
848.96	3567.56
849.13	3453.43
849.31	3446.36
849.48	3444.12
849.65	3494.21
849.83	3538.15
850.00	3563.28
850.17	3777.76
850.34	3675.17
850.52	3686.16
850.69	3751.51
850.86	3732.14
851.04	3782.97
851.21	3781.48
851.38	3779.43
851.55	3726.37
851.73	3685.23
851.90	3703.66
852.07	3434.44
852.24	3498.86
852.42	3461.44
852.59	3424.58
852.76	3400.37
852.93	3322.92
853.11	3367.42
853.28	3315.10
853.45	3310.82
853.62	3405.59
853.80	3376.36
853.97	3412.85
854.14	3313.05
854.31	3348.80
854.49	3321.81
854.66	3353.46
854.83	3372.82
855.00	3420.67
855.18	3537.59
855.35	3530.70
855.52	3438.35
855.69	3440.22
855.87	3445.61
856.04	3462.18
856.21	3463.67
856.38	3471.87
856.56	3622.30
856.73	3635.14
856.90	3588.04
857.07	3467.77
857.24	3591.76
857.42	3613.73
857.59	3592.70
857.76	3701.42
857.93	3803.08
858.10	3766.21
858.28	3789.49
858.45	3645.38
858.62	3618.20
858.79	3636.08
858.96	3701.80
859.14	3609.64
859.31	3616.53
859.48	3632.35
859.65	3483.22
859.82	3446.17
860.00	3478.75
860.17	3425.69
860.34	3419.55
860.51	3425.13
860.68	3352.71
860.86	3331.67
861.03	3321.06
861.20	3303.19
861.37	3273.40
861.54	3293.88
861.71	3240.45
861.89	3367.98
862.06	3425.13
862.23	3611.50
862.40	3645.01
862.57	3661.58
862.74	3679.64
862.92	3684.11
863.09	3721.90
863.26	3712.22
863.43	3682.43
863.60	3724.51
863.77	3597.35
863.95	3628.26
864.12	3419.55
864.29	3433.33
864.46	3407.63
864.63	3380.27
864.80	3401.12
864.97	3317.90
865.15	3346.38
865.32	3363.70
865.49	3338.19
865.66	3367.98
865.83	3334.84
866.00	3393.11
866.17	3376.91
866.35	3437.79
866.52	3468.70
866.69	3450.08
866.86	3413.03
867.03	3410.99
867.20	3456.79
867.37	3410.99
867.54	3464.98
867.72	3392.74
867.89	3348.62
868.06	3287.55
868.23	3237.09
868.40	3200.98
868.57	3196.32
868.74	3252.92
868.91	3274.33
869.08	3207.49
869.26	3216.06
869.43	3154.99
869.60	3229.46
869.77	3208.05
869.94	3238.77
870.11	3225.18
870.28	3204.14
870.45	3183.85
870.62	3219.78
870.79	3229.65
870.96	3230.39
871.14	3291.83
871.31	3280.66
871.48	3315.10
871.65	3320.50
871.82	3308.59
871.99	3346.01
872.16	3385.66
872.33	3464.23
872.50	3408.38
872.67	3338.93
872.84	3344.33
873.01	3298.35
873.18	3283.08
873.35	3271.54
873.53	3269.49
873.70	3287.73
873.87	3239.51
874.04	3251.24
874.21	3241.93
874.38	3334.65
874.55	3330.74
874.72	3379.71
874.89	3364.07
875.06	3380.45
875.23	3292.58
875.40	3366.30
875.57	3383.80
875.74	3436.68
875.91	3392.55
876.08	3321.81
876.25	3213.82
876.42	3325.34
876.59	3244.91
876.76	3276.01
876.93	3253.48
877.10	3296.30
877.27	3224.06
877.44	3227.78
877.61	3172.30
877.79	3268.74
877.96	3254.59
878.13	3276.94
878.30	3273.77
878.47	3300.21
878.64	3282.15
878.81	3377.29
878.98	3373.38
879.15	3371.33
879.32	3384.92
879.49	3415.08
879.66	3369.09
879.83	3436.49
880.00	3450.64
880.17	3440.03
880.34	3499.79
880.51	3563.47
880.68	3580.22
880.85	3572.03
881.02	3548.20
881.19	3595.30
881.36	3620.25
881.53	3653.20
881.69	3612.62
881.86	3606.29
882.03	3614.85
882.20	3641.29
882.37	3592.14
882.54	3528.65
882.71	3516.36
882.88	3560.86
883.05	3486.76
883.22	3444.50
883.39	3420.67
883.56	3493.28
883.73	3507.61
883.90	3509.47
884.07	3420.67
884.24	3448.59
884.41	3538.33
884.58	3573.71
884.75	3561.60
884.92	3595.86
885.09	3718.18
885.26	3721.90
885.43	3690.81
885.60	3713.15
885.77	3640.92
885.93	3738.47
886.10	3748.34
886.27	3614.66
886.44	3679.46
886.61	3655.44
886.78	3607.03
886.95	3520.83
887.12	3489.74
887.29	3488.62
887.46	3476.52
887.63	3541.31
887.80	3426.62
887.97	3386.04
888.14	3386.22
888.30	3298.16
888.47	3412.85
888.64	3388.83
888.81	3470.93
888.98	3507.05
889.15	3438.73
889.32	3468.33
889.49	3420.11
889.66	3479.50
889.83	3513.57
890.00	3542.80
890.16	3623.04
890.33	3555.83
890.50	3623.04
890.67	3555.09
890.84	3537.59
891.01	4157.38
891.18	3377.10
891.35	3796.93
891.52	3536.84
891.68	3573.71
>>>>>End Processed Spectral Data<<<<<
